#time,accel_x,accel_y,accel_z
1594.447564,3256.906145,-73698.386908,2368.659014
1594.450184,148.041188,-74158.044206,888.247130
1594.452804,-2368.659014,-74158.044206,296.082377
1594.455424,592.164754,-74464.482406,148.041188
1594.458044,-444.123565,-74311.263306,2072.576638
1594.460664,-1184.329507,-74158.044206,2664.741391
1594.463284,2368.659014,-74004.825107,1924.535449
1594.465904,-592.164754,-74311.263306,740.205942
1594.468524,-3108.864956,-74158.044206,-740.205942
1594.471144,-1332.370696,-74464.482406,2220.617826
1594.473764,4441.235652,-73698.386908,2516.700203
1594.476384,1036.288319,-74770.920605,740.205942
1594.479004,-2812.782580,-74004.825107,444.123565
1594.481624,-11399.171507,-75383.797003,-1184.329507
1594.484244,17468.860231,-73085.510509,2072.576638
1594.486864,888.247130,-75843.454302,7994.224174
1594.489484,2516.700203,-74924.139704,10658.965565
1594.492104,15988.448347,-74311.263306,6957.935855
1594.494724,2516.700203,-74770.920605,5181.441594
1594.497344,12879.583391,-75230.577904,5773.606348
1594.499964,8290.306550,-73545.167808,8882.471304
1594.502584,5773.606348,-73545.167808,7550.100608
1594.505204,-2220.617826,-74311.263306,5329.482782
1594.507824,-5477.523971,-74311.263306,1924.535449
1594.510444,1036.288319,-74311.263306,-1184.329507
1594.513064,592.164754,-74464.482406,2072.576638
1594.515684,9178.553681,-73391.948708,1776.494261
1594.518304,-8142.265362,-75077.358804,-3404.947333
1594.520924,-13027.624579,-74770.920605,-4145.153275
1594.523542,-5625.565159,-75383.797003,-3552.988522
1594.526159,-9178.553681,-73545.167808,-1628.453072
1594.528777,1776.494261,-72472.634111,-888.247130
1594.531394,3256.906145,-74004.825107,2664.741391
1594.534012,-1480.411884,-75537.016103,592.164754
1594.536629,2960.823768,-74924.139704,-1036.288319
1594.539247,-8290.306550,-74004.825107,-3701.029710
1594.541864,-12139.377449,-75077.358804,2220.617826
1594.544482,2812.782580,-73391.948708,6957.935855
1594.547099,5181.441594,-72012.976812,-6365.771101
1594.549716,-6957.935855,-72166.195912,1332.370696
1594.552334,1776.494261,-75843.454302,6809.894666
1594.554951,-3256.906145,-77375.645298,-8438.347739
1594.557569,-22502.260637,-74924.139704,444.123565
1594.560186,1036.288319,-73545.167808,1184.329507
1594.562804,-5625.565159,-74464.482406,-2664.741391
1594.565421,592.164754,-75383.797003,-2516.700203
1594.568039,6661.853478,-75843.454302,-6217.729913
1594.570656,-13619.789333,-75230.577904,-1924.535449
1594.573274,4589.276840,-73851.606007,296.082377
1594.575891,-14359.995275,-74004.825107,-444.123565
1594.578509,-13323.706956,-73698.386908,2516.700203
1594.581126,7254.018232,-74464.482406,-3997.112087
1594.583744,148.041188,-74311.263306,-3997.112087
1594.586361,5033.400406,-75383.797003,-148.041188
1594.588979,-13027.624579,-74617.701505,296.082377
1594.591596,-11843.295072,-74158.044206,-3849.070898
1594.594214,-11399.171507,-73851.606007,-1776.494261
1594.596831,10214.842000,-71246.881314,6809.894666
1594.599448,-1480.411884,-74464.482406,13027.624579
1594.602066,5033.400406,-75077.358804,-444.123565
1594.604683,-2960.823768,-77988.521696,2220.617826
1594.607301,13619.789333,-74770.920605,9918.759623
1594.609918,-7994.224174,-73545.167808,6661.853478
1594.612536,7846.182985,-73391.948708,2664.741391
1594.615153,-1332.370696,-74770.920605,3404.947333
1594.617771,9326.594869,-72472.634111,3256.906145
1594.620388,7550.100608,-72625.853210,8290.306550
1594.623006,3256.906145,-74158.044206,10214.842000
1594.625623,-1628.453072,-76149.892501,4293.194464
1594.628237,-5033.400406,-75077.358804,2516.700203
1594.630850,6217.729913,-73698.386908,740.205942
1594.633463,1776.494261,-73085.510509,2960.823768
1594.636077,4589.276840,-73545.167808,3701.029710
1594.638690,1332.370696,-75843.454302,6809.894666
1594.641304,-1332.370696,-73698.386908,5477.523971
1594.643917,-5033.400406,-77835.302597,14656.077652
1594.646530,21021.848753,-75996.673402,14063.912898
1594.649144,8438.347739,-76303.111601,-6661.853478
1594.651757,-6957.935855,-73085.510509,296.082377
1594.654371,10362.883188,-73391.948708,2812.782580
1594.656984,-15692.365970,-74770.920605,1036.288319
1594.659597,12139.377449,-75383.797003,6809.894666
1594.662211,-13915.871710,-75383.797003,1776.494261
1594.664824,3997.112087,-71553.319513,6069.688724
1594.667437,10807.006753,-73085.510509,14952.160028
1594.670051,444.123565,-73545.167808,11399.171507
1594.672664,1332.370696,-75996.673402,5625.565159
1594.675278,5033.400406,-76303.111601,444.123565
1594.677891,444.123565,-73851.606007,-592.164754
1594.680504,1480.411884,-73085.510509,1776.494261
1594.683118,10066.800811,-71859.757712,6957.935855
1594.685731,9622.677246,-72472.634111,12731.542202
1594.688345,7402.059420,-74311.263306,14952.160028
1594.690958,-3849.070898,-76915.987999,7846.182985
1594.693571,-2368.659014,-78448.178995,-888.247130
1594.696185,16136.489536,-73391.948708,4737.318029
1594.698798,296.082377,-71246.881314,5329.482782
1594.701412,-4589.276840,-71859.757712,4293.194464
1594.704025,-14359.995275,-75843.454302,-8882.471304
1594.706638,-8586.388927,-75690.235202,1036.288319
1594.709252,4293.194464,-75230.577904,740.205942
1594.711865,-19689.478057,-73085.510509,-1184.329507
1594.714479,5625.565159,-73085.510509,1036.288319
1594.717092,3552.988522,-74924.139704,-1332.370696
1594.719705,-13027.624579,-72932.291410,-2220.617826
1594.722319,9178.553681,-75230.577904,-4737.318029
1594.724932,-20133.601622,-75077.358804,-2664.741391
1594.727546,296.082377,-74464.482406,-1332.370696
1594.730159,-6513.812290,-72472.634111,-2960.823768
1594.732767,-7550.100608,-71859.757712,-1184.329507
1594.735375,2516.700203,-75077.358804,-2220.617826
1594.737983,-11843.295072,-75537.016103,-2960.823768
1594.740592,-5921.647536,-73085.510509,-3997.112087
1594.743200,-3404.947333,-75383.797003,5033.400406
1594.745808,3404.947333,-75383.797003,4441.235652
1594.748416,-1776.494261,-73851.606007,-11547.212695
1594.751024,-4293.194464,-73085.510509,2220.617826
1594.753632,11991.336260,-74158.044206,148.041188
1594.756240,-26351.331535,-74158.044206,-4293.194464
1594.758848,4589.276840,-77069.207099,1628.453072
1594.761457,-13619.789333,-77069.207099,-1480.411884
1594.764065,8586.388927,-73545.167808,-6365.771101
1594.766673,6513.812290,-74617.701505,-10214.842000
1594.769281,-7402.059420,-74311.263306,-3552.988522
1594.771889,-5033.400406,-75537.016103,-1184.329507
1594.774497,-12583.501014,-74158.044206,888.247130
1594.777105,-5033.400406,-74158.044206,1036.288319
1594.779714,740.205942,-74004.825107,4145.153275
1594.782322,2960.823768,-74158.044206,-1036.288319
1594.784930,1924.535449,-74311.263306,-148.041188
1594.787538,-11991.336260,-75077.358804,-4293.194464
1594.790146,-12435.459826,-75690.235202,-1480.411884
1594.792754,-6217.729913,-74004.825107,-1924.535449
1594.795362,4293.194464,-72166.195912,2368.659014
1594.797970,444.123565,-72779.072310,15544.324782
1594.800579,8734.430116,-74617.701505,296.082377
1594.803187,-7698.141797,-75230.577904,6365.771101
1594.805795,26943.496289,-75690.235202,17764.942608
1594.808403,-14211.954086,-74617.701505,11843.295072
1594.811011,5477.523971,-75230.577904,5773.606348
1594.813619,3404.947333,-76303.111601,-592.164754
1594.816227,3108.864956,-72625.853210,2368.659014
1594.818836,14508.036463,-71859.757712,5181.441594
1594.821444,4293.194464,-72166.195912,10807.006753
1594.824052,2368.659014,-75537.016103,5625.565159
1594.826660,-6069.688724,-75537.016103,7105.977043
1594.829268,11547.212695,-75077.358804,1332.370696
1594.831876,-3997.112087,-74924.139704,4885.359217
1594.834484,23686.590144,-74158.044206,2220.617826
1594.837085,296.082377,-75383.797003,6365.771101
1594.839685,15988.448347,-74004.825107,3108.864956
1594.842286,-888.247130,-75537.016103,-592.164754
1594.844886,-3849.070898,-76149.892501,7254.018232
1594.847487,17912.983796,-76609.549800,1036.288319
1594.850087,1480.411884,-72779.072310,2072.576638
1594.852687,-18209.066173,-71859.757712,3849.070898
1594.855288,21169.889941,-74770.920605,5033.400406
1594.857888,-13027.624579,-74464.482406,2664.741391
1594.860489,7698.141797,-74617.701505,8882.471304
1594.863089,-3552.988522,-72625.853210,7994.224174
1594.865689,-1776.494261,-71246.881314,10510.924376
1594.868290,13471.748144,-74311.263306,5625.565159
1594.870890,-740.205942,-74464.482406,592.164754
1594.873491,5773.606348,-74770.920605,-4293.194464
1594.876091,3552.988522,-73238.729609,-4589.276840
1594.878692,12139.377449,-71706.538613,9030.512492
1594.881292,8734.430116,-73238.729609,12879.583391
1594.883892,1184.329507,-74158.044206,11547.212695
1594.886493,444.123565,-77222.426198,1036.288319
1594.889093,4737.318029,-76915.987999,-2812.782580
1594.891694,5181.441594,-73085.510509,740.205942
1594.894294,11399.171507,-71706.538613,7105.977043
1594.896895,-30792.567187,-74770.920605,-2220.617826
1594.899495,16136.489536,-76303.111601,-2072.576638
1594.902095,-23390.507767,-75230.577904,-5181.441594
1594.904696,8438.347739,-73851.606007,-296.082377
1594.907296,6661.853478,-75843.454302,-1628.453072
1594.909897,-12731.542202,-74158.044206,-1776.494261
1594.912497,12139.377449,-74158.044206,3552.988522
1594.915098,-13915.871710,-75230.577904,-2220.617826
1594.917698,-1036.288319,-75077.358804,-1184.329507
1594.920298,-7105.977043,-75843.454302,-4885.359217
1594.922899,-11103.089130,-72319.415011,-2960.823768
1594.925499,3701.029710,-73391.948708,-148.041188
1594.928100,-7254.018232,-74311.263306,-0.000000
1594.930700,-7402.059420,-75843.454302,-740.205942
1594.933301,-2220.617826,-75383.797003,-888.247130
1594.935901,-2368.659014,-74311.263306,3849.070898
1594.938501,11399.171507,-76303.111601,14359.995275
1594.941096,10510.924376,-74770.920605,-8142.265362
1594.943691,-17172.777854,-73085.510509,-592.164754
1594.946286,24574.837274,-73545.167808,2960.823768
1594.948881,-23390.507767,-75230.577904,888.247130
1594.951475,5773.606348,-73391.948708,-2960.823768
1594.954070,-7994.224174,-73698.386908,-6957.935855
1594.956665,-22798.343014,-72625.853210,-3256.906145
1594.959260,9326.594869,-73545.167808,-11251.130318
1594.961855,-20725.766376,-72472.634111,-3404.947333
1594.964450,-2664.741391,-73545.167808,-2812.782580
1594.967045,-6661.853478,-74617.701505,-2220.617826
1594.969640,-6069.688724,-73391.948708,1332.370696
1594.972235,7105.977043,-74924.139704,148.041188
1594.974830,-296.082377,-73545.167808,2664.741391
1594.977425,-3701.029710,-74004.825107,-1628.453072
1594.980020,-13767.830521,-75077.358804,-7402.059420
1594.982615,-10066.800811,-74617.701505,-5625.565159
1594.985210,4885.359217,-73391.948708,-1776.494261
1594.987805,-3552.988522,-72319.415011,7105.977043
1594.990400,4737.318029,-74311.263306,-592.164754
1594.992995,1332.370696,-75230.577904,6809.894666
1594.995590,18801.230927,-74464.482406,12879.583391
1594.998185,-7254.018232,-74311.263306,12139.377449
1595.000780,9030.512492,-74924.139704,1036.288319
1595.003375,-4293.194464,-75996.673402,-1332.370696
1595.005970,8734.430116,-72012.976812,-592.164754
1595.008565,7846.182985,-72012.976812,3552.988522
1595.011160,9622.677246,-72319.415011,12139.377449
1595.013755,4441.235652,-75383.797003,6365.771101
1595.016350,-6217.729913,-75690.235202,6661.853478
1595.018945,5477.523971,-75230.577904,3108.864956
1595.021540,6069.688724,-72779.072310,3849.070898
1595.024135,17172.777854,-74617.701505,2220.617826
1595.026730,7402.059420,-75230.577904,8290.306550
1595.029324,4145.153275,-75537.016103,10658.965565
1595.031919,7550.100608,-74464.482406,14359.995275
1595.034514,19393.395680,-75537.016103,-2812.782580
1595.037109,-8586.388927,-75383.797003,11399.171507
1595.039704,36122.049970,-77222.426198,592.164754
1595.042299,-27387.619854,-73698.386908,4293.194464
1595.044890,14804.118840,-70787.224015,1776.494261
1595.047480,-14656.077652,-75537.016103,6069.688724
1595.050071,-3849.070898,-74617.701505,14656.077652
1595.052661,15840.407159,-74311.263306,3552.988522
1595.055252,-2072.576638,-72166.195912,5329.482782
1595.057842,9918.759623,-75383.797003,3404.947333
1595.060433,-7402.059420,-73391.948708,-444.123565
1595.063024,3849.070898,-73238.729609,-592.164754
1595.065614,11399.171507,-73851.606007,11103.089130
1595.068205,16580.613101,-73545.167808,14211.954086
1595.070795,-4441.235652,-75690.235202,12287.418637
1595.073386,2220.617826,-77222.426198,148.041188
1595.075976,444.123565,-75996.673402,-2072.576638
1595.078567,12287.418637,-72472.634111,5181.441594
1595.081157,9622.677246,-72319.415011,5181.441594
1595.083748,-28868.031738,-75537.016103,-0.000000
1595.086338,9326.594869,-75843.454302,-4145.153275
1595.088929,-19985.560434,-74770.920605,-2220.617826
1595.091519,5329.482782,-73238.729609,1332.370696
1595.094110,-3256.906145,-74311.263306,-1480.411884
1595.096700,-1184.329507,-74924.139704,-592.164754
1595.099291,1776.494261,-74617.701505,740.205942
1595.101881,-6957.935855,-74617.701505,-740.205942
1595.104472,-4737.318029,-75690.235202,-888.247130
1595.107062,-7105.977043,-75383.797003,-4293.194464
1595.109653,-6957.935855,-72319.415011,-4885.359217
1595.112243,-3849.070898,-72779.072310,-1184.329507
1595.114834,-740.205942,-74924.139704,-740.205942
1595.117425,6809.894666,-76762.768900,-0.000000
1595.120015,-8586.388927,-74770.920605,888.247130
1595.122606,-5329.482782,-73851.606007,11251.130318
1595.125196,6513.812290,-73238.729609,-3108.864956
1595.127781,-8734.430116,-73851.606007,-3701.029710
1595.130366,-6365.771101,-73391.948708,5921.647536
1595.132951,888.247130,-75690.235202,7550.100608
1595.135535,-11547.212695,-72779.072310,-3256.906145
1595.138120,-9178.553681,-75996.673402,-3108.864956
1595.140705,7698.141797,-74311.263306,-6513.812290
1595.143290,-9622.677246,-74770.920605,-2664.741391
1595.145874,1924.535449,-73698.386908,-6661.853478
1595.148459,-10066.800811,-73391.948708,-2812.782580
1595.151044,-4885.359217,-74924.139704,-3108.864956
1595.153629,-8142.265362,-74924.139704,2072.576638
1595.156214,6069.688724,-74924.139704,-0.000000
1595.158798,1628.453072,-74464.482406,1480.411884
1595.161383,-9030.512492,-74770.920605,-1184.329507
1595.163968,-10214.842000,-75230.577904,-6957.935855
1595.166553,-9474.636058,-75077.358804,-6513.812290
1595.169138,7846.182985,-72779.072310,-888.247130
1595.171722,-2664.741391,-73238.729609,11695.253884
1595.174307,7402.059420,-75383.797003,1776.494261
1595.176892,7105.977043,-76609.549800,10510.924376
1595.179477,13619.789333,-74311.263306,17468.860231
1595.182062,-6957.935855,-75077.358804,6513.812290
1595.184646,7550.100608,-75843.454302,6809.894666
1595.187231,-2220.617826,-75996.673402,-740.205942
1595.189816,5773.606348,-71859.757712,-148.041188
1595.192401,11103.089130,-71706.538613,5329.482782
1595.194986,6217.729913,-73698.386908,9918.759623
1595.197570,444.123565,-76149.892501,7994.224174
1595.200155,-1776.494261,-75690.235202,8734.430116
1595.202740,2960.823768,-74004.825107,5921.647536
1595.205325,1628.453072,-75537.016103,5625.565159
1595.207910,6809.894666,-74311.263306,2960.823768
1595.210494,5181.441594,-73391.948708,1776.494261
1595.213079,-8882.471304,-73545.167808,5625.565159
1595.215664,-4885.359217,-74924.139704,10362.883188
1595.218249,15988.448347,-75690.235202,3256.906145
1595.220834,-14952.160028,-74924.139704,5477.523971
1595.223418,33605.349767,-74004.825107,8882.471304
1595.226003,-20281.642811,-72472.634111,2960.823768
1595.228588,13323.706956,-72779.072310,8438.347739
1595.231168,1036.288319,-76609.549800,11991.336260
1595.233749,-10955.047942,-75230.577904,11695.253884
1595.236329,19393.395680,-75230.577904,3404.947333
1595.238910,-6513.812290,-73391.948708,1480.411884
1595.241490,7254.018232,-72779.072310,1480.411884
1595.244071,9030.512492,-73391.948708,2812.782580
1595.246651,5773.606348,-72319.415011,7550.100608
1595.249232,10066.800811,-74311.263306,9474.636058
1595.251812,-7994.224174,-76303.111601,7402.059420
1595.254393,3552.988522,-76303.111601,1924.535449
1595.256973,13915.871710,-74311.263306,3552.988522
1595.259553,1628.453072,-70634.004916,6661.853478
1595.262134,-2220.617826,-72779.072310,3552.988522
1595.264714,-23538.548956,-77528.864398,-9622.677246
1595.267295,740.205942,-75537.016103,-1776.494261
1595.269875,-3849.070898,-74311.263306,-888.247130
1595.272456,-15396.283594,-71706.538613,-2516.700203
1595.275036,7994.224174,-74617.701505,592.164754
1595.277617,-3997.112087,-75690.235202,-2960.823768
1595.280197,-12139.377449,-74617.701505,-444.123565
1595.282777,5477.523971,-75230.577904,-592.164754
1595.285358,-15248.242405,-74617.701505,-740.205942
1595.287938,148.041188,-74311.263306,-4589.276840
1595.290519,-13915.871710,-72472.634111,-4293.194464
1595.293099,-9918.759623,-72472.634111,-1924.535449
1595.295680,-9622.677246,-75537.016103,-3108.864956
1595.298260,-3552.988522,-74924.139704,-4737.318029
1595.300841,-4589.276840,-75383.797003,-5329.482782
1595.303421,-18209.066173,-74158.044206,4885.359217
1595.306002,20281.642811,-74464.482406,3701.029710
1595.308582,-16284.530724,-73238.729609,-13027.624579
1595.311162,-34049.473332,-72319.415011,-7846.182985
1595.313743,22650.301825,-75383.797003,296.082377
1595.316323,-1332.370696,-75996.673402,-4441.235652
1595.318904,-15988.448347,-74464.482406,-4145.153275
1595.321484,7698.141797,-74770.920605,-10658.965565
1595.324065,-25315.043216,-72166.195912,-7402.059420
1595.326645,10214.842000,-73391.948708,-6217.729913
1595.329226,-12583.501014,-74311.263306,-1036.288319
1595.331806,-2812.782580,-74464.482406,1036.288319
1595.334383,5625.565159,-75230.577904,1036.288319
1595.336960,-7698.141797,-74464.482406,2220.617826
1595.339537,-10510.924376,-75996.673402,-6809.894666
1595.342114,-9622.677246,-73391.948708,-6069.688724
1595.344691,296.082377,-73085.510509,-4589.276840
1595.347268,888.247130,-72012.976812,-1036.288319
1595.349845,4885.359217,-73545.167808,-3552.988522
1595.352421,-740.205942,-75843.454302,5921.647536
1595.354998,19393.395680,-73698.386908,10510.924376
1595.357575,-1480.411884,-74004.825107,17468.860231
1595.360152,8290.306550,-74770.920605,3256.906145
1595.362729,-6513.812290,-75996.673402,-444.123565
1595.365306,5329.482782,-74617.701505,-1924.535449
1595.367883,8882.471304,-70787.224015,1036.288319
1595.370460,12583.501014,-71400.100414,7402.059420
1595.373037,-592.164754,-74617.701505,8438.347739
1595.375614,592.164754,-74617.701505,6069.688724
1595.378191,-3404.947333,-75996.673402,5477.523971
1595.380768,10362.883188,-73545.167808,4737.318029
1595.383345,13767.830521,-72012.976812,592.164754
1595.385921,6069.688724,-72625.853210,3849.070898
1595.388498,444.123565,-73698.386908,14656.077652
1595.391075,16136.489536,-75537.016103,5033.400406
1595.393652,-3108.864956,-74311.263306,3849.070898
1595.396229,8734.430116,-75996.673402,-7254.018232
1595.398806,148.041188,-72166.195912,1924.535449
1595.401383,26203.290347,-73851.606007,10955.047942
1595.403960,-1332.370696,-73391.948708,8882.471304
1595.406537,-4737.318029,-74924.139704,12139.377449
1595.409114,7550.100608,-75996.673402,3552.988522
1595.411691,-1628.453072,-74617.701505,1776.494261
1595.414268,7994.224174,-74617.701505,2812.782580
1595.416844,6069.688724,-71553.319513,4885.359217
1595.419421,6365.771101,-72319.415011,11399.171507
1595.421998,10510.924376,-74158.044206,10807.006753
1595.424575,-4293.194464,-75843.454302,5773.606348
1595.427152,-1184.329507,-76762.768900,-1480.411884
1595.429729,8290.306550,-75077.358804,-1036.288319
1595.432306,7994.224174,-71553.319513,8586.388927
1595.434883,12731.542202,-71706.538613,11991.336260
1595.437383,-35677.926404,-75077.358804,-6365.771101
1595.439883,11103.089130,-77528.864398,-8586.388927
1595.442383,-22946.384202,-74770.920605,-9918.759623
1595.444883,-888.247130,-70327.566716,-2220.617826
1595.447383,4293.194464,-74158.044206,-2812.782580
1595.449882,-11695.253884,-74004.825107,-148.041188
1595.452382,5181.441594,-75077.358804,-1184.329507
1595.454882,-10658.965565,-74311.263306,-740.205942
1595.457382,148.041188,-74924.139704,-1036.288319
1595.459882,-5033.400406,-75383.797003,-4441.235652
1595.462382,-10510.924376,-72012.976812,-4145.153275
1595.464882,-1924.535449,-71400.100414,-5921.647536
1595.467382,-10362.883188,-71093.662214,-4293.194464
1595.469882,-7698.141797,-75537.016103,296.082377
1595.472382,-18357.107362,-74770.920605,-296.082377
1595.474882,13619.789333,-73391.948708,9918.759623
1595.477382,-20725.766376,-76762.768900,-5625.565159
1595.479882,-1036.288319,-75230.577904,9474.636058
1595.482382,36418.132346,-74924.139704,8438.347739
1595.484881,-41747.615129,-73851.606007,-7994.224174
1595.487381,2220.617826,-75843.454302,-1480.411884
1595.489881,-12879.583391,-76609.549800,-6661.853478
1595.492381,-13915.871710,-73085.510509,-4145.153275
1595.494881,3701.029710,-74924.139704,-6365.771101
1595.497381,-17320.819043,-72779.072310,-3701.029710
1595.499881,1332.370696,-74464.482406,-2368.659014
1595.502381,3108.864956,-75537.016103,296.082377
1595.504881,296.082377,-74924.139704,2516.700203
1595.507381,-13767.830521,-75996.673402,-1628.453072
1595.509881,-4885.359217,-74311.263306,-4589.276840
1595.512381,-10362.883188,-73085.510509,-4145.153275
1595.514881,10807.006753,-70634.004916,-1036.288319
1595.517380,-2664.741391,-74617.701505,2516.700203
1595.519880,5181.441594,-74158.044206,3256.906145
1595.522380,10362.883188,-75537.016103,9178.553681
1595.524880,12879.583391,-73545.167808,20577.725188
1595.527380,3552.988522,-74617.701505,8290.306550
1595.529880,-4293.194464,-75690.235202,6069.688724
1595.532380,4145.153275,-75843.454302,-1184.329507
1595.534880,-0.000000,-72625.853210,-1628.453072
1595.537397,11695.253884,-71246.881314,6365.771101
1595.539914,11103.089130,-73391.948708,9770.718434
1595.542430,-4737.318029,-74924.139704,9030.512492
1595.544947,5033.400406,-75843.454302,7550.100608
1595.547464,-3108.864956,-76303.111601,7550.100608
1595.549981,25315.043216,-75996.673402,5773.606348
1595.552497,12287.418637,-73545.167808,-0.000000
1595.555014,21614.013506,-72932.291410,2368.659014
1595.557531,-7105.977043,-74464.482406,-11251.130318
1595.560048,-18209.066173,-72779.072310,17172.777854
1595.562565,69431.317360,-76456.330700,5773.606348
1595.565081,-63213.587447,-74311.263306,-4885.359217
1595.567598,56551.733969,-71093.662214,10955.047942
1595.570115,-38046.585419,-71553.319513,2960.823768
1595.572632,10362.883188,-71400.100414,10510.924376
1595.575149,35085.761651,-77528.864398,7698.141797
1595.577665,-22502.260637,-74924.139704,3552.988522
1595.580182,27831.743419,-75690.235202,3256.906145
1595.582699,3552.988522,-71400.100414,4589.276840
1595.585216,9770.718434,-70940.443115,11547.212695
1595.587732,5033.400406,-74004.825107,9474.636058
1595.590249,-8882.471304,-75077.358804,3701.029710
1595.592766,3404.947333,-76762.768900,-4441.235652
1595.595283,14359.995275,-73851.606007,4293.194464
1595.597800,8290.306550,-72012.976812,10955.047942
1595.600316,-4737.318029,-72932.291410,6069.688724
1595.602833,-19541.436869,-77835.302597,-4885.359217
1595.605350,-1628.453072,-75996.673402,-1480.411884
1595.607867,-3404.947333,-74617.701505,-6365.771101
1595.610383,-8438.347739,-72319.415011,-5477.523971
1595.612900,5329.482782,-73085.510509,-1184.329507
1595.615417,-7254.018232,-74311.263306,-1776.494261
1595.617934,-2368.659014,-74464.482406,3256.906145
1595.620451,444.123565,-75996.673402,1480.411884
1595.622967,-10955.047942,-75383.797003,148.041188
1595.625484,-0.000000,-74770.920605,-3997.112087
1595.628001,-15988.448347,-71246.881314,-4589.276840
1595.630518,1480.411884,-70787.224015,-6513.812290
1595.633034,-5329.482782,-75077.358804,444.123565
1595.635551,-8586.388927,-73851.606007,2516.700203
1595.638082,22354.219448,-73545.167808,5625.565159
1595.640612,-40119.162056,-76762.768900,-14508.036463
1595.643142,8438.347739,-73391.948708,16284.530724
1595.645673,23834.631332,-74004.825107,148.041188
1595.648203,-47373.180288,-71706.538613,-3997.112087
1595.650733,19393.395680,-74924.139704,-1480.411884
1595.653264,-13323.706956,-77682.083497,-6365.771101
1595.655794,-11991.336260,-74770.920605,-4145.153275
1595.658324,6513.812290,-74158.044206,-6661.853478
1595.660855,-17172.777854,-71553.319513,4737.318029
1595.663385,9474.636058,-74311.263306,-2072.576638
1595.665915,-7994.224174,-74770.920605,3997.112087
1595.668446,-3701.029710,-76609.549800,2664.741391
1595.670976,-10807.006753,-77988.521696,-6069.688724
1595.673506,-8882.471304,-73698.386908,-4441.235652
1595.676037,4885.359217,-72779.072310,-3997.112087
1595.678567,-2072.576638,-70174.347617,1628.453072
1595.681097,3404.947333,-72779.072310,-4737.318029
1595.683627,-1776.494261,-75690.235202,1036.288319
1595.686158,23242.466579,-74617.701505,8586.388927
1595.688688,-4589.276840,-73698.386908,18061.024985
1595.691218,12731.542202,-74770.920605,6365.771101
1595.693749,-8142.265362,-75996.673402,-0.000000
1595.696279,6069.688724,-74924.139704,-3701.029710
1595.698809,6365.771101,-71859.757712,-148.041188
1595.701340,9918.759623,-70940.443115,6069.688724
1595.703870,14359.995275,-72932.291410,7846.182985
1595.706400,148.041188,-75383.797003,4885.359217
1595.708931,-7550.100608,-75690.235202,5921.647536
1595.711461,3108.864956,-76609.549800,7105.977043
1595.713991,14063.912898,-73238.729609,-592.164754
1595.716522,21169.889941,-73698.386908,-740.205942
1595.719052,-15988.448347,-73391.948708,-6513.812290
1595.721582,27979.784608,-71400.100414,13767.830521
1595.724113,48409.468607,-77222.426198,-3404.947333
1595.726643,-42783.903448,-74158.044206,-3552.988522
1595.729173,58032.145853,-74158.044206,9474.636058
1595.731704,-36714.214723,-71553.319513,4145.153275
1595.734234,24426.796086,-71400.100414,8586.388927
1595.736764,-8734.430116,-74464.482406,2072.576638
1595.739306,-5329.482782,-75383.797003,6957.935855
1595.741848,21910.095883,-76303.111601,1924.535449
1595.744389,1332.370696,-72012.976812,7994.224174
1595.746931,17468.860231,-72319.415011,14211.954086
1595.749472,-2812.782580,-74004.825107,8734.430116
1595.752014,-5033.400406,-75996.673402,444.123565
1595.754555,1628.453072,-76915.987999,-3997.112087
1595.757097,15396.283594,-74158.044206,7698.141797
1595.759638,10807.006753,-73085.510509,11547.212695
1595.762180,-28423.908173,-74464.482406,-1776.494261
1595.764722,1036.288319,-76609.549800,-9178.553681
1595.767263,-22798.343014,-74311.263306,-8290.306550
1595.769805,12139.377449,-72012.976812,-5477.523971
1595.772346,-18505.148550,-72166.195912,-7698.141797
1595.774888,5329.482782,-72932.291410,-1036.288319
1595.777429,-5181.441594,-74004.825107,-3404.947333
1595.779971,-20725.766376,-75077.358804,2664.741391
1595.782513,10807.006753,-75690.235202,1036.288319
1595.785054,-15692.365970,-76915.987999,-2664.741391
1595.787596,-2072.576638,-74770.920605,-1776.494261
1595.790137,-1628.453072,-70940.443115,-5329.482782
1595.792679,-8882.471304,-69714.690318,-6661.853478
1595.795220,4441.235652,-74464.482406,-4885.359217
1595.797762,4737.318029,-73698.386908,-6809.894666
1595.800304,-22354.219448,-76303.111601,-5181.441594
1595.802845,14508.036463,-76762.768900,1184.329507
1595.805387,-12287.418637,-74464.482406,-7846.182985
1595.807928,-14804.118840,-73391.948708,4589.276840
1595.810470,4441.235652,-74617.701505,-4441.235652
1595.813011,-22206.178260,-73391.948708,-5625.565159
1595.815553,15248.242405,-75996.673402,-11547.212695
1595.818094,-20133.601622,-73545.167808,-8142.265362
1595.820636,-6661.853478,-73545.167808,2368.659014
1595.823178,5477.523971,-74464.482406,4293.194464
1595.825719,-4885.359217,-72932.291410,4293.194464
1595.828261,296.082377,-76456.330700,-740.205942
1595.830802,-17172.777854,-76915.987999,-7105.977043
1595.833344,-4589.276840,-75996.673402,-7698.141797
1595.835885,-1924.535449,-73238.729609,-6661.853478
1595.838427,-8290.306550,-69101.813920,3849.070898
1595.840976,7402.059420,-72779.072310,-2960.823768
1595.843526,-5921.647536,-75383.797003,3849.070898
1595.846075,26203.290347,-75537.016103,10362.883188
1595.848624,-4145.153275,-74617.701505,14359.995275
1595.851174,6069.688724,-74311.263306,6513.812290
1595.853723,-5033.400406,-76303.111601,1480.411884
1595.856272,740.205942,-72779.072310,-1776.494261
1595.858821,12879.583391,-71859.757712,1628.453072
1595.861371,5181.441594,-71553.319513,6809.894666
1595.863920,9326.594869,-74158.044206,9474.636058
1595.866469,-740.205942,-75996.673402,7402.059420
1595.869019,-12435.459826,-74924.139704,7402.059420
1595.871568,1184.329507,-75383.797003,7698.141797
1595.874117,4145.153275,-74770.920605,3108.864956
1595.876667,-14804.118840,-71553.319513,-8882.471304
1595.879216,7994.224174,-73085.510509,10807.006753
1595.881765,10510.924376,-75077.358804,8290.306550
1595.884314,-1332.370696,-74770.920605,-3997.112087
1595.886864,9770.718434,-75537.016103,3404.947333
1595.889413,24130.713709,-74004.825107,8882.471304
1595.891962,1184.329507,-73391.948708,10066.800811
1595.894512,-148.041188,-73851.606007,11991.336260
1595.897061,5329.482782,-76149.892501,8882.471304
1595.899610,-2220.617826,-75230.577904,2812.782580
1595.902160,17912.983796,-73851.606007,4885.359217
1595.904709,12139.377449,-72625.853210,8142.265362
1595.907258,148.041188,-72779.072310,10955.047942
1595.909807,-5625.565159,-75690.235202,2960.823768
1595.912357,-4737.318029,-75077.358804,-1628.453072
1595.914906,21910.095883,-73391.948708,7550.100608
1595.917455,4885.359217,-73238.729609,10658.965565
1595.920005,-12731.542202,-73545.167808,4441.235652
1595.922554,-12435.459826,-78601.398095,-8734.430116
1595.925103,-13619.789333,-74158.044206,-2368.659014
1595.927652,6957.935855,-73391.948708,-3404.947333
1595.930202,-16728.654289,-71400.100414,-7402.059420
1595.932751,1184.329507,-72932.291410,-1184.329507
1595.935300,1184.329507,-75077.358804,-2072.576638
1595.937850,-11843.295072,-72779.072310,2812.782580
1595.940399,11103.089130,-75690.235202,1924.535449
1595.942953,-15840.407159,-76456.330700,-1332.370696
1595.945508,-888.247130,-74770.920605,-3404.947333
1595.948062,-8586.388927,-73085.510509,-5625.565159
1595.950616,-17024.736666,-71553.319513,-4441.235652
1595.953171,1480.411884,-74004.825107,-9918.759623
1595.955725,-21614.013506,-72166.195912,-740.205942
1595.958280,12287.418637,-74770.920605,5477.523971
1595.960834,-12731.542202,-75843.454302,-11103.089130
1595.963388,-20873.807564,-73391.948708,-6957.935855
1595.965943,19985.560434,-74617.701505,-1480.411884
1595.968497,-25315.043216,-72779.072310,-3404.947333
1595.971051,-7402.059420,-74158.044206,-1332.370696
1595.973606,-3108.864956,-74770.920605,-11399.171507
1595.976160,-14508.036463,-72012.976812,-4737.318029
1595.978714,5329.482782,-74770.920605,-5477.523971
1595.981269,-12287.418637,-72932.291410,6957.935855
1595.983823,8882.471304,-73698.386908,3997.112087
1595.986378,-21614.013506,-74924.139704,-3701.029710
1595.988932,-12139.377449,-75690.235202,-6957.935855
1595.991486,2072.576638,-75383.797003,-7994.224174
1595.994041,-0.000000,-70480.785816,-2072.576638
1595.996595,296.082377,-72319.415011,2516.700203
1595.999149,6217.729913,-73391.948708,4441.235652
1596.001704,6957.935855,-75230.577904,9178.553681
1596.004258,17616.901420,-73851.606007,15988.448347
1596.006812,-1924.535449,-76609.549800,8290.306550
1596.009367,-8438.347739,-76149.892501,5625.565159
1596.011921,3997.112087,-75077.358804,-2072.576638
1596.014476,3256.906145,-70940.443115,1628.453072
1596.017030,15396.283594,-70634.004916,5773.606348
1596.019584,9622.677246,-73391.948708,9918.759623
1596.022139,148.041188,-74770.920605,8882.471304
1596.024693,4589.276840,-76303.111601,8734.430116
1596.027247,2960.823768,-73391.948708,3108.864956
1596.029802,10214.842000,-72932.291410,5033.400406
1596.032356,23094.425390,-73391.948708,-3701.029710
1596.034910,-18653.189738,-73085.510509,2220.617826
1596.037465,26943.496289,-74464.482406,5921.647536
1596.040019,-18505.148550,-75383.797003,-5033.400406
1596.042574,10362.883188,-74924.139704,7105.977043
1596.045132,26055.249158,-73238.729609,8142.265362
1596.047691,-20429.683999,-71400.100414,9918.759623
1596.050249,28127.825796,-74158.044206,9918.759623
1596.052808,-16136.489536,-74464.482406,2072.576638
1596.055366,15100.201217,-75537.016103,7550.100608
1596.057925,5625.565159,-74770.920605,5625.565159
1596.060483,10658.965565,-71093.662214,11695.253884
1596.063042,3108.864956,-74158.044206,6957.935855
1596.065601,-11843.295072,-74924.139704,-888.247130
1596.068159,20133.601622,-74770.920605,444.123565
1596.070718,1924.535449,-72932.291410,6217.729913
1596.073276,19097.313304,-72472.634111,11695.253884
1596.075835,-32865.143825,-76762.768900,-3256.906145
1596.078393,9474.636058,-76149.892501,-6365.771101
1596.080952,-21762.054695,-75383.797003,-8734.430116
1596.083511,4293.194464,-71093.662214,-5329.482782
1596.086069,6069.688724,-73085.510509,-6217.729913
1596.088628,-15544.324782,-74158.044206,-1184.329507
1596.091186,14211.954086,-74464.482406,740.205942
1596.093745,-21021.848753,-75383.797003,3552.988522
1596.096303,9770.718434,-75383.797003,3552.988522
1596.098862,-9622.677246,-76915.987999,-2664.741391
1596.101421,-11843.295072,-74770.920605,-5477.523971
1596.103979,7698.141797,-73085.510509,-7698.141797
1596.106538,-3849.070898,-71093.662214,-8734.430116
1596.109096,-2072.576638,-72319.415011,-6809.894666
1596.111655,-6957.935855,-74158.044206,5477.523971
1596.114213,2220.617826,-74158.044206,1924.535449
1596.116772,-4293.194464,-75996.673402,-3997.112087
1596.119330,-7254.018232,-73698.386908,-8586.388927
1596.121889,148.041188,-73698.386908,-7994.224174
1596.124448,-4441.235652,-74617.701505,-7550.100608
1596.127006,-4589.276840,-74464.482406,-3552.988522
1596.129565,-2516.700203,-75690.235202,-3404.947333
1596.132123,-3404.947333,-73238.729609,-2072.576638
1596.134682,444.123565,-74158.044206,1184.329507
1596.137240,-2220.617826,-73698.386908,3997.112087
1596.139799,-12583.501014,-75383.797003,-5921.647536
1596.142358,-11251.130318,-76149.892501,-9326.594869
1596.144916,2960.823768,-74464.482406,-8882.471304
1596.147422,740.205942,-72319.415011,-1332.370696
1596.149928,-2960.823768,-72166.195912,-3997.112087
1596.152434,3701.029710,-73545.167808,7402.059420
1596.154940,16876.695478,-74311.263306,11103.089130
1596.157446,5033.400406,-73238.729609,16432.571912
1596.159952,10362.883188,-76149.892501,3997.112087
1596.162458,-7550.100608,-76762.768900,296.082377
1596.164964,2220.617826,-74770.920605,-2368.659014
1596.167470,5625.565159,-71553.319513,148.041188
1596.169976,13175.665768,-70327.566716,5921.647536
1596.172482,12731.542202,-73851.606007,10807.006753
1596.174988,2368.659014,-76303.111601,8142.265362
1596.177494,1628.453072,-74464.482406,3849.070898
1596.180000,1628.453072,-74617.701505,444.123565
1596.182506,20429.683999,-75077.358804,2516.700203
1596.185012,-19245.354492,-74617.701505,444.123565
1596.187518,23390.507767,-71706.538613,16432.571912
1596.190024,19245.354492,-76149.892501,-3256.906145
1596.192530,-30496.484810,-73545.167808,-2516.700203
1596.195036,43672.150578,-75077.358804,6217.729913
1596.197542,-6513.812290,-72625.853210,5033.400406
1596.200048,16728.654289,-71246.881314,15396.283594
1596.202553,11547.212695,-75383.797003,7550.100608
1596.205059,-10066.800811,-75230.577904,9918.759623
1596.207565,24130.713709,-76609.549800,4737.318029
1596.210071,2664.741391,-74158.044206,7402.059420
1596.212577,7402.059420,-75077.358804,5477.523971
1596.215083,-1480.411884,-73851.606007,1480.411884
1596.217589,2960.823768,-72472.634111,-1480.411884
1596.220095,5625.565159,-72012.976812,6957.935855
1596.222601,15396.283594,-73085.510509,11399.171507
1596.225107,-31680.814318,-76609.549800,-2220.617826
1596.227613,8438.347739,-77528.864398,-5625.565159
1596.230119,-24130.713709,-74617.701505,-8142.265362
1596.232625,10066.800811,-72012.976812,-3997.112087
1596.235131,1480.411884,-73545.167808,-7105.977043
1596.237637,-14952.160028,-74004.825107,-2220.617826
1596.240143,2516.700203,-74464.482406,-3404.947333
1596.242649,-12435.459826,-74158.044206,3997.112087
1596.245155,7698.141797,-75690.235202,3256.906145
1596.247676,-11103.089130,-76149.892501,-1332.370696
1596.250198,-10807.006753,-74158.044206,-6069.688724
1596.252719,-4293.194464,-75537.016103,-1184.329507
1596.255241,-9918.759623,-74770.920605,-2220.617826
1596.257762,5329.482782,-74004.825107,15248.242405
1596.260283,14804.118840,-74617.701505,1924.535449
1596.262805,-12139.377449,-75077.358804,-5033.400406
1596.265326,-4293.194464,-75230.577904,-4145.153275
1596.267847,3997.112087,-75383.797003,-2072.576638
1596.270369,-19837.519246,-73545.167808,-4737.318029
1596.272890,-3849.070898,-75230.577904,-1776.494261
1596.275412,-0.000000,-74770.920605,-5921.647536
1596.277933,-12879.583391,-74311.263306,-7550.100608
1596.280454,3997.112087,-73545.167808,-1924.535449
1596.282976,-4589.276840,-74464.482406,4737.318029
1596.285497,-12287.418637,-74004.825107,1036.288319
1596.288019,-8734.430116,-74924.139704,-4737.318029
1596.290540,-9030.512492,-74770.920605,-7254.018232
1596.293061,5329.482782,-73391.948708,-1184.329507
1596.295583,-4589.276840,-73545.167808,148.041188
1596.298104,3701.029710,-73698.386908,-1924.535449
1596.300626,2960.823768,-74617.701505,9030.512492
1596.303147,24426.796086,-72625.853210,18801.230927
1596.305668,148.041188,-74464.482406,15988.448347
1596.308190,2220.617826,-76609.549800,6661.853478
1596.310711,-4737.318029,-76609.549800,-2072.576638
1596.313232,3108.864956,-72625.853210,-4145.153275
1596.315754,11991.336260,-71093.662214,1628.453072
1596.318275,9178.553681,-72932.291410,11251.130318
1596.320797,11251.130318,-74158.044206,10066.800811
1596.323318,-10214.842000,-74158.044206,8290.306550
1596.325839,4145.153275,-73698.386908,6069.688724
1596.328372,-6365.771101,-77375.645298,2960.823768
1596.330906,28868.031738,-74158.044206,6661.853478
1596.333439,-3108.864956,-72779.072310,4145.153275
1596.335972,7402.059420,-73545.167808,7402.059420
1596.338505,16876.695478,-79673.931792,3256.906145
1596.341038,-23390.507767,-75996.673402,5773.606348
1596.343571,39230.914926,-76303.111601,10066.800811
1596.346104,-14656.077652,-71246.881314,11991.336260
1596.348637,7550.100608,-72319.415011,13471.748144
1596.351170,12583.501014,-75230.577904,6661.853478
1596.353703,-592.164754,-74311.263306,5181.441594
1596.356236,15248.242405,-75996.673402,3256.906145
1596.358769,-5625.565159,-74158.044206,4885.359217
1596.361302,2220.617826,-74311.263306,444.123565
1596.363835,7254.018232,-72472.634111,3256.906145
1596.366368,7698.141797,-71400.100414,8142.265362
1596.368901,9030.512492,-74770.920605,12287.418637
1596.371434,-27979.784608,-77835.302597,-4293.194464
1596.373967,9030.512492,-77375.645298,-6069.688724
1596.376500,-19393.395680,-74311.263306,-8734.430116
1596.379034,9622.677246,-71093.662214,-3552.988522
1596.381567,-11399.171507,-72779.072310,-6365.771101
1596.384100,-17912.983796,-74311.263306,-4293.194464
1596.386633,2812.782580,-75843.454302,-0.000000
1596.389166,-11843.295072,-74158.044206,6365.771101
1596.391699,8438.347739,-74617.701505,3108.864956
1596.394232,-11843.295072,-76762.768900,-592.164754
1596.396765,2960.823768,-74311.263306,-5033.400406
1596.399298,-6365.771101,-74924.139704,-1332.370696
1596.401831,-5773.606348,-74924.139704,4145.153275
1596.404364,9474.636058,-72779.072310,3404.947333
1596.406897,-1924.535449,-72779.072310,2516.700203
1596.409430,-3849.070898,-74311.263306,-8142.265362
1596.411963,-18949.272115,-76456.330700,-1332.370696
1596.414496,-1184.329507,-75383.797003,-5773.606348
1596.417029,-10362.883188,-73238.729609,-7846.182985
1596.419562,3256.906145,-73391.948708,-7846.182985
1596.422095,-6661.853478,-74004.825107,-7994.224174
1596.424628,-444.123565,-74770.920605,-1480.411884
1596.427162,-444.123565,-74311.263306,888.247130
1596.429705,-14508.036463,-75230.577904,2960.823768
1596.432249,-2220.617826,-75230.577904,-2368.659014
1596.434793,-14952.160028,-73698.386908,-6217.729913
1596.437336,10362.883188,-73391.948708,-5625.565159
1596.439880,-7846.182985,-74004.825107,-148.041188
1596.442424,6217.729913,-74311.263306,-5921.647536
1596.444968,-3701.029710,-75537.016103,3404.947333
1596.447511,27535.661042,-73238.729609,17172.777854
1596.450055,1332.370696,-73085.510509,17912.983796
1596.452599,7846.182985,-74924.139704,5625.565159
1596.455143,-6513.812290,-77069.207099,-1776.494261
1596.457686,444.123565,-74158.044206,-2960.823768
1596.460230,11991.336260,-71706.538613,1036.288319
1596.462774,11399.171507,-72319.415011,9030.512492
1596.465317,11399.171507,-74924.139704,9474.636058
1596.467861,-444.123565,-74770.920605,8586.388927
1596.470405,3108.864956,-74617.701505,5625.565159
1596.472949,5921.647536,-75077.358804,-148.041188
1596.475492,-13619.789333,-74158.044206,-9622.677246
1596.478036,12435.459826,-69255.033019,10658.965565
1596.480580,17024.736666,-74464.482406,296.082377
1596.483123,-31828.855506,-73851.606007,1628.453072
1596.485667,31828.855506,-77069.207099,4589.276840
1596.488211,-24722.878463,-74617.701505,6069.688724
1596.490755,20281.642811,-72166.195912,10362.883188
1596.493298,5477.523971,-72472.634111,11103.089130
1596.495842,4293.194464,-72319.415011,12287.418637
1596.498386,21021.848753,-76456.330700,7698.141797
1596.500930,-6957.935855,-75383.797003,3552.988522
1596.503473,2960.823768,-76609.549800,-148.041188
1596.506017,1924.535449,-74004.825107,-1036.288319
1596.508561,22946.384202,-70174.347617,8438.347739
1596.511104,-0.000000,-71859.757712,9326.594869
1596.513648,3997.112087,-74004.825107,13619.789333
1596.516192,-13915.871710,-80593.246390,-9474.636058
1596.518736,-9178.553681,-75537.016103,-6217.729913
1596.521279,2072.576638,-72779.072310,-3404.947333
1596.523823,-10658.965565,-70634.004916,-3701.029710
1596.526367,9030.512492,-72319.415011,-3701.029710
1596.528910,-22502.260637,-75690.235202,-5181.441594
1596.531462,7402.059420,-74770.920605,2220.617826
1596.534013,-1184.329507,-75690.235202,-888.247130
1596.536564,-8438.347739,-75230.577904,5773.606348
1596.539115,11399.171507,-74617.701505,-3849.070898
1596.541666,-17616.901420,-73698.386908,-2960.823768
1596.544217,12287.418637,-71859.757712,-13619.789333
1596.546768,-22206.178260,-72932.291410,-10658.965565
1596.549319,14656.077652,-73238.729609,6365.771101
1596.551870,-11695.253884,-74464.482406,-9770.718434
1596.554421,-42487.821071,-75843.454302,-4293.194464
1596.556972,16432.571912,-75843.454302,-6365.771101
1596.559523,-20429.683999,-73851.606007,-11251.130318
1596.562074,5033.400406,-73698.386908,-5477.523971
1596.564625,888.247130,-74464.482406,-10510.924376
1596.567176,-10362.883188,-73238.729609,-1924.535449
1596.569727,11695.253884,-74464.482406,-1924.535449
1596.572278,-22058.137072,-75077.358804,1332.370696
1596.574829,-3108.864956,-76149.892501,-444.123565
1596.577380,-10362.883188,-74924.139704,-4589.276840
1596.579931,6217.729913,-71706.538613,-1776.494261
1596.582482,-7698.141797,-73545.167808,-3108.864956
1596.585033,1924.535449,-74158.044206,-3849.070898
1596.587584,-888.247130,-76609.549800,1628.453072
1596.590135,19541.436869,-74464.482406,12435.459826
1596.592686,9918.759623,-72012.976812,19393.395680
1596.595237,-740.205942,-75230.577904,6365.771101
1596.597788,-6069.688724,-76915.987999,-1480.411884
1596.600339,-592.164754,-74464.482406,-2368.659014
1596.602890,6069.688724,-71093.662214,296.082377
1596.605441,15840.407159,-70634.004916,6069.688724
1596.607992,9030.512492,-74311.263306,7254.018232
1596.610543,-6217.729913,-76762.768900,6661.853478
1596.613094,3997.112087,-75383.797003,3849.070898
1596.615645,8734.430116,-76609.549800,740.205942
1596.618196,-1184.329507,-74770.920605,-1924.535449
1596.620747,13619.789333,-71093.662214,4589.276840
1596.623298,5181.441594,-72319.415011,9178.553681
1596.625850,3849.070898,-75077.358804,1776.494261
1596.628401,16432.571912,-76609.549800,4589.276840
1596.630952,11547.212695,-74617.701505,7994.224174
1596.633509,6809.894666,-72779.072310,11843.295072
1596.636066,11547.212695,-72166.195912,15544.324782
1596.638623,1628.453072,-72932.291410,10955.047942
1596.641180,5921.647536,-74770.920605,5477.523971
1596.643737,-3404.947333,-76609.549800,1184.329507
1596.646294,-148.041188,-75996.673402,-5033.400406
1596.648852,19985.560434,-72166.195912,1924.535449
1596.651409,1924.535449,-70787.224015,10510.924376
1596.653966,14359.995275,-72166.195912,15988.448347
1596.656523,-36714.214723,-77375.645298,-4145.153275
1596.659080,12287.418637,-78754.617194,-7254.018232
1596.661637,-23094.425390,-75230.577904,-12583.501014
1596.664194,10955.047942,-70480.785816,-8142.265362
1596.666751,-11251.130318,-72625.853210,-6513.812290
1596.669309,-16136.489536,-73391.948708,-2220.617826
1596.671866,2516.700203,-76303.111601,-888.247130
1596.674423,-13175.665768,-75077.358804,4441.235652
1596.676980,9178.553681,-75843.454302,-148.041188
1596.679537,-12139.377449,-74004.825107,-888.247130
1596.682094,6217.729913,-70787.224015,-8142.265362
1596.684651,-18357.107362,-73698.386908,-2516.700203
1596.687209,-3256.906145,-74311.263306,9326.594869
1596.689766,13323.706956,-74004.825107,2220.617826
1596.692323,-3404.947333,-73851.606007,-3108.864956
1596.694880,-3404.947333,-77069.207099,-3404.947333
1596.697437,-20133.601622,-74004.825107,-296.082377
1596.699994,-9326.594869,-74158.044206,-6217.729913
1596.702551,-12879.583391,-72779.072310,-7105.977043
1596.705109,740.205942,-74311.263306,-4145.153275
1596.707666,-5329.482782,-74770.920605,-3997.112087
1596.710223,2960.823768,-72779.072310,-1924.535449
1596.712780,-13767.830521,-75537.016103,1036.288319
1596.715337,-11843.295072,-76456.330700,-1332.370696
1596.717894,-6661.853478,-74770.920605,-1332.370696
1596.720451,5773.606348,-72166.195912,-2664.741391
1596.723008,-4441.235652,-71859.757712,740.205942
1596.725566,7254.018232,-75230.577904,-3404.947333
1596.728123,-7846.182985,-75843.454302,2220.617826
1596.730680,29312.155303,-73545.167808,14804.118840
1596.733237,-1332.370696,-72779.072310,20429.683999
1596.735799,8142.265362,-74617.701505,8142.265362
1596.738361,-7994.224174,-77069.207099,-296.082377
1596.740924,1036.288319,-74464.482406,-2516.700203
1596.743486,13915.871710,-71706.538613,888.247130
1596.746048,10955.047942,-71706.538613,9030.512492
1596.748610,14656.077652,-75383.797003,10362.883188
1596.751172,2220.617826,-77528.864398,10807.006753
1596.753735,12435.459826,-75690.235202,6365.771101
1596.756297,10955.047942,-77222.426198,-4293.194464
1596.758859,-5625.565159,-74464.482406,-1776.494261
1596.761421,21762.054695,-69101.813920,7402.059420
1596.763983,-1480.411884,-71553.319513,2368.659014
1596.766546,-12731.542202,-73085.510509,5329.482782
1596.769108,11991.336260,-77528.864398,6957.935855
1596.771670,-10214.842000,-73851.606007,5773.606348
1596.774232,17172.777854,-72166.195912,6957.935855
1596.776794,2812.782580,-71553.319513,14063.912898
1596.779357,11251.130318,-73238.729609,11695.253884
1596.781919,-3404.947333,-77222.426198,3849.070898
1596.784481,-4145.153275,-76762.768900,-3256.906145
1596.787043,7698.141797,-75077.358804,-888.247130
1596.789605,22798.343014,-71553.319513,11103.089130
1596.792168,5921.647536,-71246.881314,16284.530724
1596.794730,-11251.130318,-74464.482406,13767.830521
1596.797292,-16432.571912,-80440.027290,-5773.606348
1596.799854,-15396.283594,-76915.987999,-9622.677246
1596.802416,5477.523971,-72166.195912,-7846.182985
1596.804979,-9030.512492,-70634.004916,-7402.059420
1596.807541,1924.535449,-72625.853210,-592.164754
1596.810103,-9326.594869,-75537.016103,-1628.453072
1596.812665,-4885.359217,-74924.139704,592.164754
1596.815227,-6217.729913,-75690.235202,2368.659014
1596.817790,-0.000000,-75537.016103,1776.494261
1596.820352,3701.029710,-72472.634111,-7550.100608
1596.822914,-15248.242405,-72472.634111,-3404.947333
1596.825476,14656.077652,-72319.415011,-14952.160028
1596.828038,-38786.791361,-73545.167808,-1332.370696
1596.830601,47965.345042,-73085.510509,11399.171507
1596.833163,-41303.491564,-76303.111601,-12287.418637
1596.835725,-296.082377,-73851.606007,-1628.453072
1596.838289,36418.132346,-73851.606007,-13175.665768
1596.840855,-38046.585419,-72779.072310,-7994.224174
1596.843420,22798.343014,-74311.263306,-2072.576638
1596.845985,-14952.160028,-74158.044206,-6809.894666
1596.848550,592.164754,-74158.044206,2220.617826
1596.851115,-7402.059420,-76609.549800,-6513.812290
1596.853680,-19245.354492,-74770.920605,2664.741391
1596.856245,3256.906145,-74924.139704,-3997.112087
1596.858810,-3404.947333,-72166.195912,-740.205942
1596.861375,-3701.029710,-72932.291410,3404.947333
1596.863941,6957.935855,-75383.797003,-6957.935855
1596.866506,-7698.141797,-75537.016103,3108.864956
1596.869071,32717.102636,-73698.386908,14804.118840
1596.871636,-10658.965565,-73085.510509,17468.860231
1596.874201,17320.819043,-74158.044206,9918.759623
1596.876766,-0.000000,-78448.178995,-296.082377
1596.879331,-4441.235652,-73851.606007,-1332.370696
1596.881896,19541.436869,-72472.634111,-888.247130
1596.884461,7105.977043,-71246.881314,8586.388927
1596.887026,10066.800811,-73851.606007,8142.265362
1596.889592,-10214.842000,-73085.510509,5773.606348
1596.892157,1924.535449,-74770.920605,13027.624579
1596.894722,8882.471304,-76609.549800,-1628.453072
1596.897287,2960.823768,-73851.606007,-2812.782580
1596.899852,-8438.347739,-70634.004916,10510.924376
1596.902417,29756.278868,-70480.785816,10955.047942
1596.904982,-21021.848753,-74770.920605,9326.594869
1596.907547,14063.912898,-76303.111601,6513.812290
1596.910112,1480.411884,-74158.044206,5033.400406
1596.912678,13175.665768,-73238.729609,15692.365970
1596.915243,18061.024985,-73238.729609,11399.171507
1596.917808,-1924.535449,-73545.167808,8142.265362
1596.920373,-2516.700203,-77069.207099,-740.205942
1596.922938,296.082377,-76303.111601,-4885.359217
1596.925503,20429.683999,-72166.195912,2516.700203
1596.928068,6957.935855,-70940.443115,9474.636058
1596.930633,12287.418637,-70787.224015,19985.560434
1596.933198,-22650.301825,-80286.808190,-2664.741391
1596.935764,592.164754,-77375.645298,-5329.482782
1596.938329,-5181.441594,-76149.892501,-8438.347739
1596.940896,-4293.194464,-70940.443115,-5921.647536
1596.943464,5033.400406,-72319.415011,-4441.235652
1596.946032,-13471.748144,-72779.072310,-1924.535449
1596.948599,-740.205942,-74311.263306,-296.082377
1596.951167,-7698.141797,-75996.673402,4589.276840
1596.953734,-1332.370696,-76456.330700,1332.370696
1596.956302,-13323.706956,-76915.987999,-1628.453072
1596.958870,8290.306550,-71553.319513,-10362.883188
1596.961437,-17764.942608,-72779.072310,-13619.789333
1596.964005,-2812.782580,-73851.606007,6957.935855
1596.966572,15988.448347,-74158.044206,5625.565159
1596.969140,-13471.748144,-74311.263306,-11251.130318
1596.971708,-19097.313304,-77835.302597,-5033.400406
1596.974275,3552.988522,-74311.263306,-6661.853478
1596.976843,-13619.789333,-73545.167808,-9326.594869
1596.979411,1628.453072,-72625.853210,-3997.112087
1596.981978,444.123565,-74311.263306,-4885.359217
1596.984546,-8290.306550,-74924.139704,1184.329507
1596.987113,-11843.295072,-76149.892501,-7698.141797
1596.989681,-13323.706956,-75230.577904,-1480.411884
1596.992249,148.041188,-73545.167808,-1924.535449
1596.994816,4885.359217,-71553.319513,1776.494261
1596.997384,-5921.647536,-72625.853210,-296.082377
1596.999952,4737.318029,-75690.235202,-5625.565159
1597.002519,-2664.741391,-76456.330700,2664.741391
1597.005087,23242.466579,-73545.167808,13915.871710
1597.007654,296.082377,-72932.291410,16284.530724
1597.010222,-1924.535449,-74617.701505,9918.759623
1597.012790,2812.782580,-77069.207099,-888.247130
1597.015357,-5033.400406,-73851.606007,-4441.235652
1597.017925,17616.901420,-72319.415011,1776.494261
1597.020493,6365.771101,-72166.195912,8438.347739
1597.023060,19097.313304,-73391.948708,8438.347739
1597.025628,-3997.112087,-76609.549800,11547.212695
1597.028195,-15692.365970,-74004.825107,13767.830521
1597.030763,-148.041188,-74924.139704,148.041188
1597.033331,29460.196492,-72012.976812,1332.370696
1597.035898,-12287.418637,-68795.375720,-4293.194464
1597.038466,13619.789333,-71706.538613,7846.182985
1597.041033,6365.771101,-74158.044206,5773.606348
1597.043603,-7254.018232,-74004.825107,7402.059420
1597.046173,23390.507767,-74770.920605,9178.553681
1597.048742,2960.823768,-73391.948708,11843.295072
1597.051312,11103.089130,-73238.729609,10807.006753
1597.053882,-2516.700203,-75230.577904,888.247130
1597.056451,-6365.771101,-75996.673402,-3849.070898
1597.059021,10214.842000,-75843.454302,-4441.235652
1597.061591,15248.242405,-71246.881314,9770.718434
1597.064160,13175.665768,-71706.538613,16284.530724
1597.066730,-32124.937883,-75537.016103,-296.082377
1597.069300,5033.400406,-77988.521696,-6809.894666
1597.071869,-19985.560434,-76609.549800,-12583.501014
1597.074439,5773.606348,-72319.415011,-9326.594869
1597.077008,-5329.482782,-72166.195912,-8438.347739
1597.079578,-6513.812290,-72012.976812,-592.164754
1597.082148,-2072.576638,-74770.920605,-2812.782580
1597.084717,-13915.871710,-74158.044206,1628.453072
1597.087287,7402.059420,-74924.139704,3256.906145
1597.089857,-8142.265362,-75383.797003,-740.205942
1597.092426,-14211.954086,-73851.606007,-6365.771101
1597.094996,-20281.642811,-72012.976812,-8142.265362
1597.097566,888.247130,-70634.004916,-2368.659014
1597.100135,2812.782580,-73851.606007,4441.235652
1597.102705,-3552.988522,-73851.606007,-10510.924376
1597.105274,-16876.695478,-76609.549800,-7698.141797
1597.107844,-9622.677246,-74464.482406,-5625.565159
1597.110414,-10066.800811,-73545.167808,-9178.553681
1597.112983,-5329.482782,-72319.415011,-4441.235652
1597.115553,5625.565159,-73698.386908,-4441.235652
1597.118123,-6957.935855,-74464.482406,-2072.576638
1597.120692,-13619.789333,-75843.454302,-8734.430116
1597.123262,-11843.295072,-75383.797003,-2960.823768
1597.125832,-444.123565,-74158.044206,-1628.453072
1597.128401,4737.318029,-71246.881314,2960.823768
1597.130971,-4145.153275,-71859.757712,-888.247130
1597.133540,6217.729913,-74464.482406,-5921.647536
1597.136110,3108.864956,-76609.549800,2812.782580
1597.138680,18505.148550,-73391.948708,13767.830521
1597.141249,1184.329507,-73851.606007,16580.613101
1597.143819,-592.164754,-75077.358804,10807.006753
1597.146346,1628.453072,-75230.577904,-296.082377
1597.148873,1036.288319,-74158.044206,-2812.782580
1597.151400,17764.942608,-71859.757712,888.247130
1597.153926,1332.370696,-72625.853210,7402.059420
1597.156453,2812.782580,-74464.482406,9918.759623
1597.158980,148.041188,-74464.482406,5329.482782
1597.161507,-14063.912898,-74158.044206,-2664.741391
1597.164034,-12287.418637,-76149.892501,296.082377
1597.166561,20429.683999,-73085.510509,14656.077652
1597.169087,19393.395680,-71859.757712,8290.306550
1597.171614,-6365.771101,-73085.510509,6513.812290
1597.174141,27387.619854,-76303.111601,10066.800811
1597.176668,-4441.235652,-77528.864398,12435.459826
1597.179195,19689.478057,-74924.139704,17616.901420
1597.181722,20577.725188,-74158.044206,15840.407159
1597.184249,-8438.347739,-73391.948708,10658.965565
1597.186775,2960.823768,-75996.673402,-1332.370696
1597.189302,-4885.359217,-75077.358804,-5329.482782
1597.191829,19985.560434,-73545.167808,3404.947333
1597.194356,4737.318029,-72472.634111,10362.883188
1597.196883,-296.082377,-71706.538613,20429.683999
1597.199410,-23834.631332,-79061.055394,-2368.659014
1597.201936,-12879.583391,-76609.549800,-5033.400406
1597.204463,1628.453072,-74617.701505,-7698.141797
1597.206990,-8734.430116,-72166.195912,-7550.100608
1597.209517,2664.741391,-72319.415011,-4293.194464
1597.212044,-10214.842000,-74004.825107,-3849.070898
1597.214571,-9326.594869,-74004.825107,1332.370696
1597.217098,4589.276840,-76303.111601,5329.482782
1597.219624,-0.000000,-76609.549800,1480.411884
1597.222151,-3256.906145,-76303.111601,2516.700203
1597.224678,-7105.977043,-74924.139704,-592.164754
1597.227205,-3552.988522,-73238.729609,-3256.906145
1597.229732,-1776.494261,-72625.853210,3997.112087
1597.232259,-2960.823768,-73698.386908,-3997.112087
1597.234786,-10066.800811,-77375.645298,-2516.700203
1597.237312,-9918.759623,-75996.673402,-3552.988522
1597.239839,-13767.830521,-71553.319513,-9326.594869
1597.242366,-4293.194464,-71400.100414,-6661.853478
1597.244893,1480.411884,-71859.757712,-5329.482782
1597.247430,-6513.812290,-74924.139704,296.082377
1597.249968,-15100.201217,-76303.111601,-6661.853478
1597.252505,-10066.800811,-74770.920605,-4293.194464
1597.255043,-10066.800811,-74617.701505,-2812.782580
1597.257580,740.205942,-71553.319513,4885.359217
1597.260118,-592.164754,-71859.757712,-296.082377
1597.262655,3849.070898,-73545.167808,-3552.988522
1597.265193,7254.018232,-76303.111601,2516.700203
1597.267730,13027.624579,-74158.044206,11695.253884
1597.270268,3552.988522,-73851.606007,13027.624579
1597.272805,1036.288319,-74617.701505,11251.130318
1597.275343,4441.235652,-74617.701505,2960.823768
1597.277880,592.164754,-74770.920605,-2220.617826
1597.280418,15100.201217,-71553.319513,296.082377
1597.282955,16580.613101,-72779.072310,4441.235652
1597.285493,12731.542202,-73391.948708,6661.853478
1597.288030,11399.171507,-74004.825107,7254.018232
1597.290568,5181.441594,-76149.892501,1480.411884
1597.293105,-5921.647536,-76456.330700,-2664.741391
1597.295642,-7846.182985,-72472.634111,3701.029710
1597.298180,23686.590144,-69867.909418,9770.718434
1597.300717,-21317.931130,-73545.167808,10066.800811
1597.303255,10807.006753,-75230.577904,11103.089130
1597.305792,6365.771101,-75077.358804,7402.059420
1597.308330,9326.594869,-73391.948708,11103.089130
1597.310867,9326.594869,-74464.482406,14063.912898
1597.313405,1480.411884,-74311.263306,6809.894666
1597.315942,-4589.276840,-75383.797003,-2516.700203
1597.318480,7402.059420,-73238.729609,-5329.482782
1597.321017,14508.036463,-72012.976812,6957.935855
1597.323555,7105.977043,-72932.291410,11399.171507
1597.326092,-21317.931130,-74770.920605,6217.729913
1597.328630,-7846.182985,-78294.959896,-5625.565159
1597.331167,-21465.972318,-74770.920605,-9178.553681
1597.333705,8734.430116,-72012.976812,-7994.224174
1597.336242,-9030.512492,-72472.634111,-9474.636058
1597.338780,-6069.688724,-73545.167808,-2664.741391
1597.341317,-5625.565159,-75843.454302,-2516.700203
1597.343855,-6217.729913,-74311.263306,4441.235652
1597.346392,1628.453072,-75690.235202,3701.029710
1597.348938,-7105.977043,-74770.920605,2516.700203
1597.351485,-4737.318029,-74464.482406,-1332.370696
1597.354031,-4589.276840,-74464.482406,-11695.253884
1597.356578,-17764.942608,-71246.881314,1332.370696
1597.359124,3849.070898,-73391.948708,11695.253884
1597.361671,1924.535449,-75537.016103,-740.205942
1597.364217,-9030.512492,-76456.330700,-6069.688724
1597.366763,-2516.700203,-76456.330700,-7254.018232
1597.369310,-4441.235652,-72319.415011,-10214.842000
1597.371856,-2368.659014,-72472.634111,-2368.659014
1597.374403,5625.565159,-74004.825107,-0.000000
1597.376949,-21614.013506,-75996.673402,-6661.853478
1597.379495,-2664.741391,-75996.673402,-7254.018232
1597.382042,-9474.636058,-75230.577904,-3701.029710
1597.384588,3701.029710,-73085.510509,4293.194464
1597.387135,-1628.453072,-72932.291410,5921.647536
1597.389681,5329.482782,-73085.510509,-2220.617826
1597.392227,2664.741391,-75383.797003,2664.741391
1597.394774,20429.683999,-73545.167808,11399.171507
1597.397320,3701.029710,-74158.044206,11991.336260
1597.399867,444.123565,-75537.016103,8142.265362
1597.402413,-0.000000,-74617.701505,2220.617826
1597.404960,1480.411884,-73391.948708,1332.370696
1597.407506,14952.160028,-72625.853210,2072.576638
1597.410052,8438.347739,-72472.634111,5625.565159
1597.412599,5329.482782,-72012.976812,5033.400406
1597.415145,-12879.583391,-74924.139704,11991.336260
1597.417692,10807.006753,-75843.454302,10214.842000
1597.420238,-10214.842000,-77069.207099,-4441.235652
1597.422784,3997.112087,-73391.948708,9622.677246
1597.425331,36270.091158,-71246.881314,10066.800811
1597.427877,-9770.718434,-75383.797003,11991.336260
1597.430389,11695.253884,-75383.797003,13027.624579
1597.432900,7846.182985,-77222.426198,11843.295072
1597.435411,12435.459826,-74158.044206,13619.789333
1597.437923,7254.018232,-74924.139704,9770.718434
1597.440434,-1184.329507,-73698.386908,6513.812290
1597.442946,-0.000000,-75537.016103,-4737.318029
1597.445457,14359.995275,-73238.729609,-1036.288319
1597.447968,5329.482782,-72319.415011,9030.512492
1597.450480,13619.789333,-73085.510509,13471.748144
1597.452991,-34197.514520,-76456.330700,-2368.659014
1597.455503,7994.224174,-76915.987999,-2664.741391
1597.458014,-19393.395680,-74158.044206,-6809.894666
1597.460526,6957.935855,-71093.662214,-8438.347739
1597.463037,-592.164754,-74004.825107,-7698.141797
1597.465548,-15100.201217,-74770.920605,-4885.359217
1597.468060,-444.123565,-75383.797003,-2072.576638
1597.470571,-16136.489536,-74311.263306,2368.659014
1597.473083,11103.089130,-75537.016103,6661.853478
1597.475594,-3256.906145,-78294.959896,4145.153275
1597.478105,-17468.860231,-74770.920605,-2220.617826
1597.480617,21762.054695,-74311.263306,10066.800811
1597.483128,29164.114115,-74464.482406,1480.411884
1597.485640,-58476.269418,-70480.785816,-16284.530724
1597.488151,46040.809592,-74311.263306,592.164754
1597.490662,-31532.773129,-77835.302597,-7550.100608
1597.493174,-4293.194464,-74158.044206,740.205942
1597.495685,8882.471304,-72166.195912,-11251.130318
1597.498197,-28571.949361,-71553.319513,-3404.947333
1597.500708,7698.141797,-75230.577904,-5477.523971
1597.503219,-17320.819043,-75690.235202,-10510.924376
1597.505731,-6661.853478,-74770.920605,-3849.070898
1597.508242,10658.965565,-74158.044206,1332.370696
1597.510754,-14508.036463,-71706.538613,8882.471304
1597.513265,7254.018232,-74311.263306,-5181.441594
1597.515777,-6661.853478,-73851.606007,1628.453072
1597.518288,27387.619854,-73085.510509,7105.977043
1597.520799,1776.494261,-74617.701505,13619.789333
1597.523311,4737.318029,-75077.358804,9474.636058
1597.525822,-4737.318029,-76456.330700,3404.947333
1597.528334,1480.411884,-73391.948708,3108.864956
1597.530859,12731.542202,-72012.976812,-1036.288319
1597.533385,6809.894666,-72012.976812,3404.947333
1597.535911,18949.272115,-75537.016103,7698.141797
1597.538437,-15988.448347,-75690.235202,12287.418637
1597.540963,8734.430116,-74311.263306,13471.748144
1597.543489,-5921.647536,-75843.454302,-6365.771101
1597.546015,4737.318029,-74311.263306,6513.812290
1597.548541,29312.155303,-74004.825107,8882.471304
1597.551067,-1332.370696,-72319.415011,10658.965565
1597.553592,23834.631332,-75996.673402,13027.624579
1597.556118,-1332.370696,-76149.892501,12583.501014
1597.558644,15396.283594,-74924.139704,15692.365970
1597.561170,3108.864956,-74924.139704,7846.182985
1597.563696,-1332.370696,-73085.510509,4885.359217
1597.566222,6957.935855,-75077.358804,-3701.029710
1597.568748,13323.706956,-74004.825107,888.247130
1597.571274,7698.141797,-73545.167808,8586.388927
1597.573799,11103.089130,-73545.167808,12879.583391
1597.576325,-30052.361245,-77528.864398,-3404.947333
1597.578851,5033.400406,-76915.987999,-0.000000
1597.581377,-12287.418637,-74004.825107,-4441.235652
1597.583903,888.247130,-71706.538613,-6661.853478
1597.586429,-4441.235652,-73545.167808,-8142.265362
1597.588955,-12287.418637,-75077.358804,-5181.441594
1597.591481,-3849.070898,-74924.139704,-1480.411884
1597.594007,-5181.441594,-74464.482406,3849.070898
1597.596532,-5625.565159,-75077.358804,6661.853478
1597.599058,6069.688724,-74311.263306,-2960.823768
1597.601584,2072.576638,-71706.538613,-14952.160028
1597.604110,-27979.784608,-73698.386908,-12583.501014
1597.606636,7846.182985,-72319.415011,-3256.906145
1597.609162,-28127.825796,-72012.976812,-5181.441594
1597.611688,-10214.842000,-75996.673402,-5625.565159
1597.614214,6661.853478,-77988.521696,-7994.224174
1597.616739,-19245.354492,-74770.920605,-4293.194464
1597.619265,11843.295072,-73085.510509,-7105.977043
1597.621791,-18949.272115,-72472.634111,-3108.864956
1597.624317,-4441.235652,-74924.139704,-4293.194464
1597.626843,-12583.501014,-75383.797003,-7254.018232
1597.629369,-1184.329507,-74004.825107,-6365.771101
1597.631907,4885.359217,-74004.825107,4441.235652
1597.634445,-8882.471304,-74158.044206,3849.070898
1597.636983,6217.729913,-74004.825107,1776.494261
1597.639521,7254.018232,-73698.386908,3552.988522
1597.642059,21465.972318,-73238.729609,13175.665768
1597.644597,3552.988522,-74004.825107,10658.965565
1597.647135,-592.164754,-76303.111601,5921.647536
1597.649673,-2516.700203,-75843.454302,1628.453072
1597.652211,888.247130,-72472.634111,2220.617826
1597.654749,18653.189738,-71400.100414,6069.688724
1597.657287,7550.100608,-73238.729609,5329.482782
1597.659825,6957.935855,-72932.291410,3256.906145
1597.662364,1184.329507,-74770.920605,1924.535449
1597.664902,-17320.819043,-74617.701505,-148.041188
1597.667440,8290.306550,-75230.577904,1480.411884
1597.669978,9178.553681,-71246.881314,740.205942
1597.672516,9178.553681,-68795.375720,6957.935855
1597.675054,6069.688724,-74158.044206,11547.212695
1597.677592,-148.041188,-75077.358804,11991.336260
1597.680130,9622.677246,-76149.892501,6661.853478
1597.682668,-888.247130,-73545.167808,8586.388927
1597.685206,10807.006753,-74004.825107,9474.636058
1597.687744,-0.000000,-74004.825107,1184.329507
1597.690282,17468.860231,-73238.729609,-148.041188
1597.692820,1776.494261,-72932.291410,3997.112087
1597.695358,9030.512492,-73391.948708,12139.377449
1597.697896,-26499.372724,-76915.987999,148.041188
1597.700434,444.123565,-76762.768900,-4589.276840
1597.702972,-14656.077652,-74464.482406,-6365.771101
1597.705510,6069.688724,-71706.538613,-5181.441594
1597.708048,-2072.576638,-73545.167808,-7550.100608
1597.710586,-15100.201217,-75077.358804,-3849.070898
1597.713124,-3701.029710,-75230.577904,-2664.741391
1597.715663,-15544.324782,-74464.482406,888.247130
1597.718201,-740.205942,-74311.263306,7550.100608
1597.720739,-5033.400406,-73545.167808,-1628.453072
1597.723277,-1628.453072,-72012.976812,-6809.894666
1597.725815,3701.029710,-75383.797003,-9474.636058
1597.728353,-29164.114115,-72472.634111,-5773.606348
1597.730891,2960.823768,-71553.319513,3256.906145
1597.733399,-6513.812290,-74311.263306,-3404.947333
1597.735907,-15248.242405,-75383.797003,-3256.906145
1597.738415,444.123565,-75077.358804,-9622.677246
1597.740923,-17172.777854,-72166.195912,-6809.894666
1597.743431,-2516.700203,-73085.510509,-2072.576638
1597.745939,-13767.830521,-75690.235202,-4885.359217
1597.748447,-2664.741391,-74311.263306,-5329.482782
1597.750955,444.123565,-74464.482406,-5329.482782
1597.753463,1924.535449,-73238.729609,4441.235652
1597.755972,-5477.523971,-74617.701505,1628.453072
1597.758480,5033.400406,-74464.482406,740.205942
1597.760988,8586.388927,-74311.263306,6365.771101
1597.763496,17616.901420,-72319.415011,14656.077652
1597.766004,3256.906145,-74464.482406,7698.141797
1597.768512,-1332.370696,-76762.768900,4145.153275
1597.771020,-148.041188,-75996.673402,592.164754
1597.773528,-2220.617826,-72166.195912,2516.700203
1597.776036,21465.972318,-71093.662214,7994.224174
1597.778544,17764.942608,-73545.167808,5773.606348
1597.781052,-3404.947333,-75690.235202,5921.647536
1597.783560,1628.453072,-75537.016103,13619.789333
1597.786068,444.123565,-75996.673402,-5329.482782
1597.788576,1184.329507,-74158.044206,-1776.494261
1597.791085,9474.636058,-70787.224015,5329.482782
1597.793593,14508.036463,-71706.538613,10214.842000
1597.796101,2664.741391,-74158.044206,8882.471304
1597.798609,3849.070898,-76915.987999,11399.171507
1597.801117,10214.842000,-75843.454302,10955.047942
1597.803625,148.041188,-74464.482406,7846.182985
1597.806133,1924.535449,-73391.948708,2220.617826
1597.808641,7698.141797,-72625.853210,-1480.411884
1597.811149,15544.324782,-72012.976812,3256.906145
1597.813657,296.082377,-73698.386908,9030.512492
1597.816165,-6365.771101,-75383.797003,11843.295072
1597.818673,-5329.482782,-78754.617194,-7254.018232
1597.821181,-14063.912898,-73851.606007,-2664.741391
1597.823690,7254.018232,-72932.291410,-3701.029710
1597.826198,-11547.212695,-71859.757712,-4589.276840
1597.828706,1776.494261,-74464.482406,-6809.894666
1597.831214,-16432.571912,-75843.454302,-6069.688724
1597.833738,-6957.935855,-75383.797003,-1184.329507
1597.836262,-2960.823768,-72779.072310,1036.288319
1597.838786,1924.535449,-71246.881314,296.082377
1597.841311,-2072.576638,-74004.825107,-2368.659014
1597.843835,-19837.519246,-75230.577904,-11547.212695
1597.846359,-9770.718434,-72932.291410,-1924.535449
1597.848884,13027.624579,-73545.167808,1924.535449
1597.851408,-22206.178260,-72779.072310,-4589.276840
1597.853932,6217.729913,-74617.701505,-5921.647536
1597.856456,1332.370696,-76303.111601,-6365.771101
1597.858981,-15840.407159,-73698.386908,-2960.823768
1597.861505,2516.700203,-74770.920605,-3108.864956
1597.864029,-25018.960840,-74158.044206,-3701.029710
1597.866554,3256.906145,-74924.139704,-6365.771101
1597.869078,-9474.636058,-74311.263306,-3997.112087
1597.871602,5181.441594,-72932.291410,2812.782580
1597.874127,-6365.771101,-75690.235202,1776.494261
1597.876651,6069.688724,-74770.920605,3108.864956
1597.879175,9326.594869,-74770.920605,4441.235652
1597.881699,20281.642811,-72012.976812,15100.201217
1597.884224,8586.388927,-74158.044206,11843.295072
1597.886748,-4589.276840,-76149.892501,4293.194464
1597.889272,1184.329507,-76149.892501,-0.000000
1597.891797,-2664.741391,-73238.729609,3701.029710
1597.894321,20133.601622,-70021.128517,7550.100608
1597.896845,444.123565,-74158.044206,6217.729913
1597.899369,3552.988522,-74464.482406,2072.576638
1597.901894,-14211.954086,-75383.797003,-296.082377
1597.904418,-592.164754,-75383.797003,1628.453072
1597.906942,-7994.224174,-74158.044206,-3701.029710
1597.909467,13619.789333,-69255.033019,4293.194464
1597.911991,33161.226202,-72779.072310,11251.130318
1597.914515,-2664.741391,-73238.729609,11399.171507
1597.917040,18357.107362,-75996.673402,8882.471304
1597.919564,-3552.988522,-77222.426198,9326.594869
1597.922088,14804.118840,-74924.139704,8586.388927
1597.924612,-2516.700203,-74617.701505,148.041188
1597.927137,8142.265362,-72319.415011,296.082377
1597.929661,19393.395680,-72166.195912,5477.523971
1597.932185,3849.070898,-73391.948708,10214.842000
1597.934723,-27831.743419,-76303.111601,1036.288319
1597.937261,-1776.494261,-78294.959896,-7402.059420
1597.939799,-18505.148550,-74004.825107,-4441.235652
1597.942337,8586.388927,-71706.538613,-2368.659014
1597.944875,-11103.089130,-71093.662214,-5921.647536
1597.947413,-2960.823768,-74770.920605,-4885.359217
1597.949951,-6661.853478,-76149.892501,-6365.771101
1597.952489,-12879.583391,-74924.139704,-3108.864956
1597.955027,10066.800811,-73545.167808,888.247130
1597.957565,-4885.359217,-74924.139704,5477.523971
1597.960103,-12879.583391,-73545.167808,-1924.535449
1597.962641,3849.070898,-72779.072310,-4145.153275
1597.965178,-10955.047942,-73391.948708,888.247130
1597.967716,-592.164754,-72779.072310,5921.647536
1597.970254,1184.329507,-74158.044206,-7698.141797
1597.972792,-11547.212695,-74617.701505,-4589.276840
1597.975330,1184.329507,-74158.044206,-6513.812290
1597.977868,-11991.336260,-72166.195912,-2960.823768
1597.980406,-12139.377449,-74158.044206,-8142.265362
1597.982944,-12287.418637,-74770.920605,-6069.688724
1597.985482,-6069.688724,-75230.577904,-5033.400406
1597.988020,4737.318029,-73391.948708,1628.453072
1597.990558,-5773.606348,-73391.948708,5033.400406
1597.993096,444.123565,-75996.673402,3256.906145
1597.995634,2220.617826,-75537.016103,3701.029710
1597.998172,21465.972318,-72166.195912,10807.006753
1598.000710,10658.965565,-72319.415011,14063.912898
1598.003247,6513.812290,-75690.235202,8142.265362
1598.005785,-5477.523971,-77375.645298,592.164754
1598.008323,4441.235652,-74311.263306,2812.782580
1598.010861,5477.523971,-72319.415011,3849.070898
1598.013399,21021.848753,-70940.443115,7402.059420
1598.015937,18949.272115,-74770.920605,9178.553681
1598.018475,-11251.130318,-74924.139704,2664.741391
1598.021013,-444.123565,-75077.358804,7402.059420
1598.023551,19689.478057,-75996.673402,-740.205942
1598.026089,2960.823768,-74311.263306,5033.400406
1598.028627,19985.560434,-69714.690318,8142.265362
1598.031165,21614.013506,-74004.825107,11547.212695
1598.033703,-4885.359217,-76149.892501,15692.365970
1598.036251,18653.189738,-77528.864398,13619.789333
1598.038799,-2812.782580,-76456.330700,7994.224174
1598.041347,5921.647536,-74617.701505,2368.659014
1598.043895,9622.677246,-72319.415011,-1036.288319
1598.046444,16136.489536,-71093.662214,7846.182985
1598.048992,444.123565,-72779.072310,8734.430116
1598.051540,-12287.418637,-76149.892501,6365.771101
1598.054088,-19097.313304,-79980.369991,-8142.265362
1598.056636,-3701.029710,-75383.797003,-4145.153275
1598.059184,-2072.576638,-71859.757712,-3108.864956
1598.061733,-4145.153275,-71400.100414,-4441.235652
1598.064281,-4885.359217,-75077.358804,-5033.400406
1598.066829,-11991.336260,-76303.111601,-5625.565159
1598.069377,-10362.883188,-75230.577904,-2368.659014
1598.071925,-3552.988522,-74464.482406,3701.029710
1598.074473,1480.411884,-72779.072310,1036.288319
1598.077022,-6809.894666,-73391.948708,-9326.594869
1598.079570,-22798.343014,-72319.415011,-148.041188
1598.082118,30940.608376,-74004.825107,13175.665768
1598.084666,-28571.949361,-77835.302597,-1628.453072
1598.087214,1776.494261,-73238.729609,-1480.411884
1598.089762,20577.725188,-76149.892501,-10066.800811
1598.092311,-31976.896694,-75230.577904,-888.247130
1598.094859,22502.260637,-74464.482406,-2220.617826
1598.097407,-36122.049970,-74311.263306,-7846.182985
1598.099955,-10066.800811,-74158.044206,296.082377
1598.102503,3256.906145,-75690.235202,-4293.194464
1598.105051,-1184.329507,-72932.291410,5181.441594
1598.107600,4293.194464,-74770.920605,6069.688724
1598.110148,-5625.565159,-75843.454302,2812.782580
1598.112696,5773.606348,-75843.454302,6365.771101
1598.115244,20725.766376,-72779.072310,10362.883188
1598.117792,10214.842000,-71553.319513,16580.613101
1598.120340,7105.977043,-76609.549800,6513.812290
1598.122889,-8586.388927,-76456.330700,-1776.494261
1598.125437,7994.224174,-74770.920605,296.082377
1598.127985,5773.606348,-71859.757712,6365.771101
1598.130533,24722.878463,-72166.195912,11695.253884
1598.133081,11991.336260,-74617.701505,11399.171507
1598.135629,12731.542202,-76456.330700,10807.006753
1598.138186,-1332.370696,-76915.987999,-7994.224174
1598.140743,-2516.700203,-74924.139704,7254.018232
1598.143300,28423.908173,-71093.662214,6365.771101
1598.145857,8142.265362,-70021.128517,15840.407159
1598.148414,9030.512492,-73545.167808,13027.624579
1598.150970,740.205942,-75537.016103,12879.583391
1598.153527,8142.265362,-76456.330700,7846.182985
1598.156084,-5921.647536,-75843.454302,4145.153275
1598.158641,9474.636058,-74617.701505,3256.906145
1598.161198,17320.819043,-71859.757712,1332.370696
1598.163755,3552.988522,-71400.100414,7550.100608
1598.166311,9770.718434,-73698.386908,13027.624579
1598.168868,-35974.008781,-79061.055394,-6365.771101
1598.171425,13471.748144,-78754.617194,-6069.688724
1598.173982,-16580.613101,-74158.044206,-7550.100608
1598.176539,9178.553681,-68642.156621,-2960.823768
1598.179096,-3256.906145,-73698.386908,-3997.112087
1598.181652,-14804.118840,-76303.111601,-4145.153275
1598.184209,-9474.636058,-75843.454302,-5773.606348
1598.186766,-8882.471304,-75230.577904,-1776.494261
1598.189323,6217.729913,-75537.016103,6217.729913
1598.191880,11843.295072,-73698.386908,-3108.864956
1598.194436,-15100.201217,-72932.291410,-6661.853478
1598.196993,-25167.002028,-75537.016103,-0.000000
1598.199550,8142.265362,-74464.482406,4145.153275
1598.202107,-11251.130318,-75077.358804,-3256.906145
1598.204664,10214.842000,-75230.577904,-6365.771101
1598.207221,740.205942,-76149.892501,-8438.347739
1598.209777,-10807.006753,-74770.920605,-2960.823768
1598.212334,-10807.006753,-74311.263306,-3997.112087
1598.214891,-14063.912898,-74770.920605,-6069.688724
1598.217448,-740.205942,-75996.673402,1184.329507
1598.220005,5773.606348,-72779.072310,444.123565
1598.222562,-2812.782580,-72472.634111,5477.523971
1598.225118,-740.205942,-76609.549800,444.123565
1598.227675,148.041188,-76456.330700,5773.606348
1598.230232,21762.054695,-74158.044206,9326.594869
1598.232789,13323.706956,-72012.976812,15248.242405
1598.235346,4145.153275,-74311.263306,6661.853478
1598.237903,-3552.988522,-76609.549800,1924.535449
1598.240466,-1036.288319,-75383.797003,-1628.453072
1598.243029,11251.130318,-72319.415011,5033.400406
1598.245592,24574.837274,-71093.662214,7698.141797
1598.248155,5773.606348,-73698.386908,10658.965565
1598.250718,-3552.988522,-75996.673402,14804.118840
1598.253281,30200.402434,-75996.673402,7254.018232
1598.255844,-8586.388927,-75537.016103,-12879.583391
1598.258407,3108.864956,-70327.566716,6365.771101
1598.260970,36418.132346,-73085.510509,12731.542202
1598.263533,-9622.677246,-72779.072310,17616.901420
1598.266096,32421.020260,-76609.549800,14804.118840
1598.268659,-19689.478057,-76609.549800,5921.647536
1598.271222,16876.695478,-75690.235202,4589.276840
1598.273785,18949.272115,-74311.263306,-2220.617826
1598.276348,14952.160028,-69867.909418,5625.565159
1598.278911,2960.823768,-71553.319513,7698.141797
1598.281474,3849.070898,-73545.167808,13915.871710
1598.284037,-35381.844028,-79367.493593,-7550.100608
1598.286600,12731.542202,-77835.302597,-7550.100608
1598.289163,-16876.695478,-73698.386908,-7698.141797
1598.291726,592.164754,-69255.033019,-1776.494261
1598.294289,-3404.947333,-73698.386908,-2812.782580
1598.296852,-13027.624579,-76456.330700,-2516.700203
1598.299415,-8734.430116,-76303.111601,-3404.947333
1598.301978,-8142.265362,-75690.235202,-1480.411884
1598.304541,-3256.906145,-74311.263306,5329.482782
1598.307104,-148.041188,-74617.701505,8586.388927
1598.309667,4441.235652,-72932.291410,-2368.659014
1598.312230,-24130.713709,-75230.577904,3552.988522
1598.314793,9622.677246,-73698.386908,3552.988522
1598.317356,-3701.029710,-76303.111601,-6069.688724
1598.319919,-10214.842000,-74617.701505,-3849.070898
1598.322482,8438.347739,-75383.797003,-7254.018232
1598.325045,-25611.125593,-72932.291410,-3701.029710
1598.327608,-3108.864956,-74770.920605,-9326.594869
1598.330171,-11991.336260,-75690.235202,-8734.430116
1598.332734,-2960.823768,-74311.263306,-2960.823768
1598.335297,2072.576638,-73085.510509,2516.700203
1598.337860,-10510.924376,-73238.729609,5921.647536
1598.340423,8586.388927,-75996.673402,3997.112087
1598.342991,-2220.617826,-75230.577904,5477.523971
1598.345560,31236.690752,-72012.976812,12139.377449
1598.348128,8142.265362,-73698.386908,11843.295072
1598.350697,-2812.782580,-76149.892501,3108.864956
1598.353265,-1184.329507,-76762.768900,592.164754
1598.355834,3256.906145,-74158.044206,2368.659014
1598.358402,6513.812290,-71093.662214,7402.059420
1598.360971,11843.295072,-71400.100414,10510.924376
1598.363539,-5773.606348,-76915.987999,12731.542202
1598.366108,10955.047942,-75996.673402,12731.542202
1598.368676,17764.942608,-76303.111601,-0.000000
1598.371245,-13471.748144,-74770.920605,1628.453072
1598.373813,22798.343014,-71093.662214,9030.512492
1598.376382,-148.041188,-71553.319513,9918.759623
1598.378950,16580.613101,-72779.072310,16284.530724
1598.381519,2072.576638,-76456.330700,8290.306550
1598.384087,-6809.894666,-75996.673402,4293.194464
1598.386656,13619.789333,-74311.263306,-1480.411884
1598.389224,9622.677246,-72166.195912,-1184.329507
1598.391793,13767.830521,-69867.909418,8586.388927
1598.394361,4885.359217,-73085.510509,12287.418637
1598.396930,-32124.937883,-76915.987999,-2368.659014
1598.399498,-2072.576638,-79520.712692,-8734.430116
1598.402067,-19245.354492,-75077.358804,-9474.636058
1598.404635,4145.153275,-69255.033019,-2072.576638
1598.407204,-1184.329507,-72166.195912,-4441.235652
1598.409772,-15988.448347,-75537.016103,-4145.153275
1598.412341,-8438.347739,-77222.426198,-5921.647536
1598.414909,-17764.942608,-75230.577904,-5033.400406
1598.417478,-8734.430116,-75843.454302,5033.400406
1598.420046,-3701.029710,-75383.797003,5033.400406
1598.422615,5625.565159,-72319.415011,12435.459826
1598.425183,21317.931130,-74464.482406,-6809.894666
1598.427752,-48409.468607,-73545.167808,-7254.018232
1598.430320,14656.077652,-74464.482406,-0.000000
1598.432889,-19393.395680,-75996.673402,-12139.377449
1598.435457,-7698.141797,-72779.072310,-4885.359217
1598.438026,7846.182985,-73698.386908,-7846.182985
1598.440594,-33753.390955,-72319.415011,-8438.347739
1598.443163,5329.482782,-74924.139704,-9770.718434
1598.445736,-10214.842000,-74924.139704,-5773.606348
1598.448309,3701.029710,-72932.291410,4589.276840
1598.450882,-6513.812290,-75537.016103,5625.565159
1598.453455,5773.606348,-74617.701505,4589.276840
1598.456028,592.164754,-75996.673402,5625.565159
1598.458601,21169.889941,-72166.195912,13767.830521
1598.461174,11547.212695,-72166.195912,13175.665768
1598.463747,-3256.906145,-76456.330700,3404.947333
1598.466320,-740.205942,-76609.549800,1628.453072
1598.468893,3404.947333,-74464.482406,1776.494261
1598.471466,13323.706956,-70787.224015,4589.276840
1598.474039,30940.608376,-72166.195912,9326.594869
1598.476612,1480.411884,-73698.386908,-740.205942
1598.479185,-8290.306550,-76149.892501,4441.235652
1598.481758,19541.436869,-77375.645298,296.082377
1598.484331,-16432.571912,-73391.948708,5773.606348
1598.486904,22058.137072,-68795.375720,10362.883188
1598.489477,1332.370696,-71706.538613,7846.182985
1598.492050,11103.089130,-73391.948708,15988.448347
1598.494623,5477.523971,-79061.055394,10658.965565
1598.497196,-12731.542202,-75537.016103,6069.688724
1598.499769,16432.571912,-75690.235202,1036.288319
1598.502342,25018.960840,-71859.757712,5921.647536
1598.504915,1924.535449,-70327.566716,8586.388927
1598.507488,12435.459826,-73085.510509,11991.336260
1598.510061,-40267.203245,-79367.493593,-7550.100608
1598.512634,11547.212695,-78754.617194,-6513.812290
1598.515207,-18653.189738,-74311.263306,-9030.512492
1598.517780,11399.171507,-68948.594820,-2960.823768
1598.520353,-2368.659014,-72625.853210,-2960.823768
1598.522926,-15692.365970,-76609.549800,-3849.070898
1598.525499,-11251.130318,-77069.207099,-8142.265362
1598.528072,-8142.265362,-76303.111601,-888.247130
1598.530645,8290.306550,-75383.797003,6809.894666
1598.533218,4589.276840,-74924.139704,8734.430116
1598.535791,2220.617826,-73085.510509,-2516.700203
1598.538364,-16136.489536,-74004.825107,-592.164754
1598.540937,-8734.430116,-76303.111601,888.247130
1598.543510,2516.700203,-76609.549800,-4293.194464
1598.546083,-4589.276840,-75996.673402,-7402.059420
1598.548658,444.123565,-74158.044206,-4885.359217
1598.551234,-17024.736666,-72472.634111,-9770.718434
1598.553810,-6809.894666,-73391.948708,-8438.347739
1598.556385,-9030.512492,-74617.701505,-6513.812290
1598.558961,1628.453072,-74004.825107,1628.453072
1598.561537,-2812.782580,-73238.729609,5921.647536
1598.564112,296.082377,-74770.920605,296.082377
1598.566688,1480.411884,-75383.797003,5625.565159
1598.569264,18505.148550,-74770.920605,8290.306550
1598.571839,9178.553681,-71706.538613,13175.665768
1598.574415,8882.471304,-74158.044206,9474.636058
1598.576990,-3849.070898,-76609.549800,2516.700203
1598.579566,740.205942,-74924.139704,-1036.288319
1598.582142,6809.894666,-72779.072310,4145.153275
1598.584717,20281.642811,-73545.167808,8290.306550
1598.587293,20281.642811,-73238.729609,10214.842000
1598.589869,4737.318029,-76303.111601,-7994.224174
1598.592444,592.164754,-75690.235202,888.247130
1598.595020,18209.066173,-76303.111601,-4589.276840
1598.597596,-14359.995275,-70787.224015,9030.512492
1598.600171,29756.278868,-71246.881314,14063.912898
1598.602747,-592.164754,-73085.510509,15248.242405
1598.605323,11399.171507,-76303.111601,11399.171507
1598.607898,-6809.894666,-77988.521696,2812.782580
1598.610474,1776.494261,-74464.482406,-888.247130
1598.613050,10066.800811,-73085.510509,-740.205942
1598.615625,7550.100608,-71093.662214,11547.212695
1598.618201,12583.501014,-71553.319513,12583.501014
1598.620777,-35825.967593,-76762.768900,-9326.594869
1598.623352,-1924.535449,-78907.836294,-12879.583391
1598.625928,-16876.695478,-75843.454302,-11843.295072
1598.628503,5477.523971,-69408.252119,-2960.823768
1598.631079,-5477.523971,-70480.785816,-3404.947333
1598.633655,-10658.965565,-73698.386908,-3404.947333
1598.636230,-4589.276840,-77528.864398,-6661.853478
1598.638806,-10807.006753,-75690.235202,-6069.688724
1598.641382,4293.194464,-74617.701505,2960.823768
1598.643957,-5625.565159,-73545.167808,-3849.070898
1598.646533,-3108.864956,-70940.443115,-740.205942
1598.649109,296.082377,-72779.072310,4441.235652
1598.651687,-5625.565159,-75690.235202,3997.112087
1598.654264,-16876.695478,-76456.330700,-8882.471304
1598.656842,-9030.512492,-76303.111601,-9326.594869
1598.659420,-2368.659014,-73391.948708,-6809.894666
1598.661998,-13767.830521,-73238.729609,-2072.576638
1598.664576,-8438.347739,-72779.072310,-8734.430116
1598.667154,-11547.212695,-74311.263306,-4441.235652
1598.669731,1184.329507,-75383.797003,-3404.947333
1598.672309,-4589.276840,-73851.606007,5921.647536
1598.674887,5477.523971,-74924.139704,-888.247130
1598.677465,5181.441594,-75077.358804,7550.100608
1598.680043,23982.672521,-73851.606007,11251.130318
1598.682621,8290.306550,-72166.195912,13915.871710
1598.685199,1184.329507,-74464.482406,7254.018232
1598.687776,-1332.370696,-77222.426198,3108.864956
1598.690354,-4737.318029,-74617.701505,-1184.329507
1598.692932,5921.647536,-72166.195912,5181.441594
1598.695510,11399.171507,-73851.606007,10807.006753
1598.698088,8142.265362,-74311.263306,11103.089130
1598.700666,9474.636058,-75843.454302,10362.883188
1598.703243,-3997.112087,-77988.521696,-9474.636058
1598.705821,-2072.576638,-73698.386908,-2072.576638
1598.708399,32124.937883,-70787.224015,11103.089130
1598.710977,3256.906145,-70787.224015,14063.912898
1598.713555,8586.388927,-74158.044206,15692.365970
1598.716133,10362.883188,-77069.207099,10362.883188
1598.718711,-13915.871710,-76762.768900,888.247130
1598.721288,10807.006753,-75383.797003,-888.247130
1598.723866,22502.260637,-71553.319513,3552.988522
1598.726444,7254.018232,-69867.909418,10362.883188
1598.729022,12879.583391,-72319.415011,12583.501014
1598.731600,-40267.203245,-79827.150892,-10807.006753
1598.734144,7105.977043,-77528.864398,-5181.441594
1598.736688,-12583.501014,-74770.920605,-10066.800811
1598.739232,1332.370696,-67569.622924,-2960.823768
1598.741776,2072.576638,-72319.415011,-1776.494261
1598.744320,-17024.736666,-75537.016103,-4589.276840
1598.746864,-11251.130318,-77988.521696,-7254.018232
1598.749408,-7254.018232,-75690.235202,-4293.194464
1598.751952,-7550.100608,-74004.825107,1776.494261
1598.754496,-5625.565159,-73545.167808,6217.729913
1598.757040,1776.494261,-72472.634111,-296.082377
1598.759583,-14508.036463,-75690.235202,7846.182985
1598.762127,-11991.336260,-75077.358804,-2960.823768
1598.764671,-7550.100608,-76915.987999,-5921.647536
1598.767215,592.164754,-75843.454302,-7698.141797
1598.769759,-14211.954086,-74004.825107,-5773.606348
1598.772303,-6809.894666,-72472.634111,-5625.565159
1598.774847,-13323.706956,-72472.634111,-8882.471304
1598.777391,-2516.700203,-74311.263306,-3849.070898
1598.779935,-148.041188,-74924.139704,1776.494261
1598.782479,-7402.059420,-74311.263306,1924.535449
1598.785023,7698.141797,-74617.701505,5033.400406
1598.787567,2516.700203,-74924.139704,9770.718434
1598.790111,14508.036463,-71859.757712,17024.736666
1598.792655,5773.606348,-74311.263306,7105.977043
1598.795199,1332.370696,-75383.797003,4885.359217
1598.797743,-1332.370696,-77222.426198,-148.041188
1598.800287,1924.535449,-73391.948708,3108.864956
1598.802831,21021.848753,-70021.128517,5477.523971
1598.805375,7846.182985,-73085.510509,11695.253884
1598.807919,-12435.459826,-74617.701505,5033.400406
1598.810463,24278.754898,-77988.521696,8586.388927
1598.813007,4589.276840,-75843.454302,-6069.688724
1598.815551,-5181.441594,-69408.252119,888.247130
1598.818095,34493.596897,-70634.004916,13619.789333
1598.820639,-8142.265362,-70787.224015,17912.983796
1598.823183,17764.942608,-76149.892501,17024.736666
1598.825727,-1036.288319,-78448.178995,4589.276840
1598.828271,-8290.306550,-75843.454302,1628.453072
1598.830815,27387.619854,-72472.634111,-1776.494261
1598.833359,3404.947333,-68642.156621,9622.677246
1598.835910,16728.654289,-72472.634111,12731.542202
1598.838463,-46781.015534,-76915.987999,-6217.729913
1598.841015,5921.647536,-79980.369991,-11399.171507
1598.843567,-23390.507767,-76149.892501,-12435.459826
1598.846119,-1036.288319,-69101.813920,-2960.823768
1598.848672,4589.276840,-71246.881314,-1036.288319
1598.851224,-16876.695478,-74004.825107,-4441.235652
1598.853776,-6365.771101,-76762.768900,-5773.606348
1598.856328,-20429.683999,-77528.864398,-4441.235652
1598.858880,1184.329507,-73391.948708,-3849.070898
1598.861433,-5625.565159,-73238.729609,-4589.276840
1598.863985,-5033.400406,-71400.100414,2516.700203
1598.866537,3849.070898,-73085.510509,-444.123565
1598.869089,-26795.455100,-74924.139704,-3256.906145
1598.871641,3256.906145,-75843.454302,-5921.647536
1598.874194,-20429.683999,-76609.549800,-14359.995275
1598.876746,-4737.318029,-72472.634111,-7254.018232
1598.879298,-8734.430116,-72932.291410,-12435.459826
1598.881850,-12287.418637,-72932.291410,-4737.318029
1598.884402,5625.565159,-74617.701505,-5033.400406
1598.886955,-7105.977043,-73851.606007,3552.988522
1598.889507,-3404.947333,-75690.235202,296.082377
1598.892059,8734.430116,-74770.920605,5181.441594
1598.894611,15396.283594,-73698.386908,10066.800811
1598.897164,19393.395680,-73238.729609,15544.324782
1598.899716,3108.864956,-73698.386908,14359.995275
1598.902268,2368.659014,-76149.892501,2368.659014
1598.904820,-10510.924376,-76456.330700,-444.123565
1598.907372,14952.160028,-71553.319513,4441.235652
1598.909925,14656.077652,-69714.690318,5477.523971
1598.912477,10955.047942,-72625.853210,15396.283594
1598.915029,16728.654289,-75537.016103,10510.924376
1598.917581,-21021.848753,-77069.207099,-5329.482782
1598.920133,-13619.789333,-74004.825107,-7698.141797
1598.922686,22650.301825,-71859.757712,11251.130318
1598.925238,1036.288319,-70327.566716,16136.489536
1598.927790,13915.871710,-70940.443115,15692.365970
1598.930342,3997.112087,-75537.016103,6365.771101
1598.932895,-8290.306550,-77069.207099,1480.411884
1598.935447,8290.306550,-76762.768900,-444.123565
1598.938006,13027.624579,-72625.853210,7402.059420
1598.940565,8882.471304,-69867.909418,12287.418637
1598.943124,-4885.359217,-72625.853210,11103.089130
1598.945683,-33309.267390,-79214.274493,-9770.718434
1598.948243,2516.700203,-77375.645298,-8882.471304
1598.950802,-13323.706956,-75996.673402,-9326.594869
1598.953361,2960.823768,-69101.813920,-1480.411884
1598.955920,-444.123565,-71553.319513,-1184.329507
1598.958479,-15396.283594,-75690.235202,-2220.617826
1598.961038,-2960.823768,-77682.083497,-5181.441594
1598.963598,-6661.853478,-77988.521696,-2220.617826
1598.966157,10066.800811,-73085.510509,-4293.194464
1598.968716,-14359.995275,-72319.415011,-1776.494261
1598.971275,3108.864956,-71093.662214,-6069.688724
1598.973834,-25907.207970,-71246.881314,-1924.535449
1598.976393,-6069.688724,-73851.606007,-2368.659014
1598.978953,1480.411884,-77069.207099,-11843.295072
1598.981512,-11103.089130,-75383.797003,-8290.306550
1598.984071,-4589.276840,-73698.386908,-9326.594869
1598.986630,-9030.512492,-72932.291410,-5477.523971
1598.989189,-7994.224174,-73698.386908,-2072.576638
1598.991748,5181.441594,-74924.139704,1924.535449
1598.994308,-6217.729913,-75383.797003,6513.812290
1598.996867,6365.771101,-75537.016103,-2220.617826
1598.999426,2812.782580,-74158.044206,7254.018232
1599.001985,26499.372724,-72472.634111,16432.571912
1599.004544,5477.523971,-72319.415011,14804.118840
1599.007103,1776.494261,-75843.454302,8882.471304
1599.009663,296.082377,-77528.864398,1332.370696
1599.012222,-3404.947333,-74617.701505,-3108.864956
1599.014781,8142.265362,-71859.757712,4737.318029
1599.017340,14952.160028,-72779.072310,13027.624579
1599.019899,15396.283594,-73698.386908,19985.560434
1599.022458,-2516.700203,-77528.864398,-5329.482782
1599.025018,-3552.988522,-75537.016103,-8142.265362
1599.027577,9474.636058,-75690.235202,8586.388927
1599.030136,24426.796086,-70174.347617,14359.995275
1599.032695,17320.819043,-70174.347617,15988.448347
1599.035254,11103.089130,-74770.920605,15100.201217
1599.037813,-9474.636058,-78294.959896,3256.906145
1599.040378,-5921.647536,-75843.454302,-0.000000
1599.042943,24130.713709,-72625.853210,2220.617826
1599.045509,9030.512492,-69101.813920,10362.883188
1599.048074,14063.912898,-71553.319513,11843.295072
1599.050639,-39378.956114,-74924.139704,-6661.853478
1599.053204,1628.453072,-79673.931792,-12287.418637
1599.055769,-18209.066173,-76303.111601,-12879.583391
1599.058334,-1184.329507,-70174.347617,-2664.741391
1599.060899,2960.823768,-70634.004916,-1332.370696
1599.063464,-11991.336260,-73238.729609,-4293.194464
1599.066029,-11843.295072,-76762.768900,-6365.771101
1599.068594,-2072.576638,-77682.083497,-4737.318029
1599.071159,2072.576638,-74464.482406,-592.164754
1599.073724,6661.853478,-73545.167808,2072.576638
1599.076289,-6809.894666,-69867.909418,296.082377
1599.078854,4293.194464,-74770.920605,7550.100608
1599.081419,-15840.407159,-77835.302597,-3256.906145
1599.083984,-8586.388927,-77375.645298,-3404.947333
1599.086549,1184.329507,-76456.330700,-10510.924376
1599.089114,-18653.189738,-72932.291410,-10510.924376
1599.091679,-1184.329507,-72779.072310,-9622.677246
1599.094244,-11991.336260,-72625.853210,-5033.400406
1599.096809,3404.947333,-74464.482406,2812.782580
1599.099374,-8882.471304,-75537.016103,7994.224174
1599.101939,6069.688724,-75383.797003,-1036.288319
1599.104504,4441.235652,-75537.016103,7105.977043
1599.107070,27535.661042,-72472.634111,13323.706956
1599.109635,11399.171507,-72166.195912,17912.983796
1599.112200,1332.370696,-75537.016103,7846.182985
1599.114765,-3256.906145,-75843.454302,444.123565
1599.117330,592.164754,-74770.920605,-1924.535449
1599.119895,5625.565159,-71246.881314,5773.606348
1599.122460,16728.654289,-69714.690318,4293.194464
1599.125025,9770.718434,-73391.948708,4737.318029
1599.127590,-8586.388927,-76456.330700,4589.276840
1599.130155,-5033.400406,-75843.454302,-2960.823768
1599.132720,19245.354492,-75383.797003,9770.718434
1599.135285,11991.336260,-70327.566716,14656.077652
1599.137850,24130.713709,-71706.538613,17764.942608
1599.140415,2664.741391,-75690.235202,10807.006753
1599.142984,592.164754,-77528.864398,7254.018232
1599.145553,444.123565,-77528.864398,888.247130
1599.148122,14656.077652,-72779.072310,8586.388927
1599.150691,13619.789333,-70480.785816,12731.542202
1599.153260,-8290.306550,-71706.538613,12139.377449
1599.155829,-27091.537477,-78294.959896,-9622.677246
1599.158397,-1332.370696,-77528.864398,-10955.047942
1599.160966,-12879.583391,-75537.016103,-10214.842000
1599.163535,1036.288319,-70634.004916,-2368.659014
1599.166104,-2072.576638,-70021.128517,-444.123565
1599.168673,-8882.471304,-74924.139704,-1332.370696
1599.171242,-13767.830521,-75996.673402,-5033.400406
1599.173811,-4737.318029,-74617.701505,-6809.894666
1599.176380,-1924.535449,-72932.291410,-8882.471304
1599.178949,-15544.324782,-72319.415011,-6217.729913
1599.181518,9770.718434,-71859.757712,4441.235652
1599.184087,-20281.642811,-75077.358804,-740.205942
1599.186655,-30792.567187,-75690.235202,-5181.441594
1599.189224,4441.235652,-77375.645298,-11251.130318
1599.191793,-15692.365970,-74158.044206,-11547.212695
1599.194362,-9918.759623,-72472.634111,-13471.748144
1599.196931,-8290.306550,-71859.757712,-5477.523971
1599.199500,-8734.430116,-72472.634111,-4145.153275
1599.202069,1184.329507,-74464.482406,3701.029710
1599.204638,-14211.954086,-76456.330700,3108.864956
1599.207207,5773.606348,-75383.797003,3849.070898
1599.209776,18061.024985,-73545.167808,8882.471304
1599.212345,19245.354492,-71093.662214,19393.395680
1599.214913,6809.894666,-72932.291410,13175.665768
1599.217482,1036.288319,-75690.235202,2812.782580
1599.220051,-5477.523971,-77375.645298,-740.205942
1599.222620,4145.153275,-74617.701505,1628.453072
1599.225189,14359.995275,-68182.499322,5181.441594
1599.227758,19837.519246,-71400.100414,13175.665768
1599.230327,-11399.171507,-75230.577904,5033.400406
1599.232896,-2664.741391,-78601.398095,-2664.741391
1599.235465,-7698.141797,-74464.482406,888.247130
1599.238034,10362.883188,-70174.347617,10066.800811
1599.240603,13027.624579,-70021.128517,15988.448347
1599.243172,14952.160028,-72319.415011,17468.860231
1599.245744,-5181.441594,-77835.302597,6217.729913
1599.248316,2368.659014,-77682.083497,1036.288319
1599.250888,14359.995275,-74924.139704,1480.411884
1599.253460,17172.777854,-70634.004916,11103.089130
1599.256033,9770.718434,-71553.319513,13323.706956
1599.258605,-30792.567187,-73391.948708,-4441.235652
1599.261177,-8438.347739,-78754.617194,-16136.489536
1599.263749,-20577.725188,-75843.454302,-14952.160028
1599.266321,1480.411884,-71246.881314,-5921.647536
1599.268894,-3552.988522,-70634.004916,-3256.906145
1599.271466,-11843.295072,-72779.072310,-1924.535449
1599.274038,-4293.194464,-76303.111601,-3997.112087
1599.276610,-6513.812290,-75690.235202,-6217.729913
1599.279182,296.082377,-75996.673402,888.247130
1599.281755,3997.112087,-75230.577904,-4145.153275
1599.284327,-15840.407159,-70634.004916,888.247130
1599.286899,7254.018232,-72932.291410,6069.688724
1599.289471,-11843.295072,-76303.111601,-3256.906145
1599.292043,-13175.665768,-77835.302597,-4441.235652
1599.294616,-740.205942,-75690.235202,-14804.118840
1599.297188,-22058.137072,-72166.195912,-12287.418637
1599.299760,888.247130,-72932.291410,-6809.894666
1599.302332,-11251.130318,-73238.729609,-3701.029710
1599.304904,3849.070898,-74158.044206,6365.771101
1599.307477,-14952.160028,-77069.207099,1628.453072
1599.310049,10362.883188,-76149.892501,4293.194464
1599.312621,5477.523971,-75996.673402,7550.100608
1599.315193,26351.331535,-70634.004916,16432.571912
1599.317765,3404.947333,-73545.167808,19097.313304
1599.320338,-3849.070898,-75077.358804,2220.617826
1599.322910,-2072.576638,-76456.330700,-2812.782580
1599.325482,592.164754,-75077.358804,1036.288319
1599.328054,5477.523971,-71246.881314,8290.306550
1599.330626,10807.006753,-72932.291410,12435.459826
1599.333199,15248.242405,-74004.825107,17024.736666
1599.335771,15692.365970,-76149.892501,-10362.883188
1599.338343,-27831.743419,-76149.892501,-7994.224174
1599.340915,21762.054695,-70174.347617,10510.924376
1599.343488,16876.695478,-69714.690318,11103.089130
1599.346060,6661.853478,-71706.538613,16876.695478
1599.348600,9326.594869,-76456.330700,10362.883188
1599.351141,-9622.677246,-77682.083497,-592.164754
1599.353681,22946.384202,-75383.797003,-740.205942
1599.356222,3108.864956,-71706.538613,5477.523971
1599.358762,13175.665768,-70327.566716,15248.242405
1599.361303,-36122.049970,-76303.111601,-8290.306550
1599.363843,4589.276840,-77069.207099,-10510.924376
1599.366384,-19245.354492,-75843.454302,-16136.489536
1599.368924,1036.288319,-71246.881314,-6217.729913
1599.371465,-4293.194464,-72319.415011,-5033.400406
1599.374005,-12435.459826,-72932.291410,-888.247130
1599.376545,-7402.059420,-74464.482406,-1776.494261
1599.379086,-5921.647536,-74464.482406,-5033.400406
1599.381626,-4885.359217,-73085.510509,-7550.100608
1599.384167,-7550.100608,-74311.263306,-9326.594869
1599.386707,444.123565,-71706.538613,1036.288319
1599.389248,-18949.272115,-74770.920605,3256.906145
1599.391788,-8438.347739,-75537.016103,-1776.494261
1599.394329,-296.082377,-78141.740796,-11547.212695
1599.396869,-13619.789333,-74617.701505,-10807.006753
1599.399410,-5181.441594,-72625.853210,-15100.201217
1599.401950,-11843.295072,-72012.976812,-5329.482782
1599.404491,1924.535449,-72625.853210,-2516.700203
1599.407031,-10658.965565,-73391.948708,5477.523971
1599.409572,-0.000000,-77222.426198,-888.247130
1599.412112,6513.812290,-76609.549800,3849.070898
1599.414653,23390.507767,-72932.291410,10510.924376
1599.417193,10214.842000,-71246.881314,18357.107362
1599.419734,8142.265362,-72472.634111,11399.171507
1599.422274,-3997.112087,-76456.330700,2516.700203
1599.424815,-3849.070898,-75996.673402,-3701.029710
1599.427355,9030.512492,-74617.701505,888.247130
1599.429896,7402.059420,-72319.415011,9326.594869
1599.432436,21317.931130,-71859.757712,19097.313304
1599.434977,39082.873738,-75230.577904,19393.395680
1599.437517,-19245.354492,-78754.617194,-13619.789333
1599.440057,6513.812290,-73391.948708,4441.235652
1599.442598,28275.866984,-72932.291410,14508.036463
1599.445138,-2516.700203,-69867.909418,23094.425390
1599.447679,20281.642811,-75077.358804,16432.571912
1599.450228,-17320.819043,-76456.330700,3256.906145
1599.452777,148.041188,-77069.207099,-2664.741391
1599.455327,28868.031738,-73545.167808,6957.935855
1599.457876,1480.411884,-70480.785816,10362.883188
1599.460425,-9622.677246,-72779.072310,11695.253884
1599.462974,-27387.619854,-78448.178995,-11103.089130
1599.465523,-3701.029710,-75537.016103,-6809.894666
1599.468073,888.247130,-76303.111601,-7994.224174
1599.470622,-15248.242405,-72012.976812,-4737.318029
1599.473171,5625.565159,-72932.291410,1776.494261
1599.475720,-14508.036463,-75077.358804,-3997.112087
1599.478270,-10362.883188,-76762.768900,-444.123565
1599.480819,12731.542202,-75843.454302,-1776.494261
1599.483368,-4441.235652,-75230.577904,-10214.842000
1599.485917,-4885.359217,-74004.825107,6957.935855
1599.488466,7994.224174,-70634.004916,-1332.370696
1599.491016,-18801.230927,-75537.016103,-4885.359217
1599.493565,-6957.935855,-77988.521696,-4885.359217
1599.496114,-7402.059420,-78448.178995,-10066.800811
1599.498663,-4737.318029,-74004.825107,-11991.336260
1599.501212,-7994.224174,-72319.415011,-11399.171507
1599.503762,-1184.329507,-72012.976812,-0.000000
1599.506311,-3108.864956,-74464.482406,5033.400406
1599.508860,-6069.688724,-75690.235202,7698.141797
1599.511409,8290.306550,-77069.207099,1776.494261
1599.513959,9030.512492,-75383.797003,7994.224174
1599.516508,29016.072926,-71093.662214,16284.530724
1599.519057,2664.741391,-72932.291410,18801.230927
1599.521606,3997.112087,-75230.577904,5329.482782
1599.524155,-7402.059420,-77528.864398,592.164754
1599.526705,1628.453072,-74311.263306,-4293.194464
1599.529254,15840.407159,-69408.252119,3404.947333
1599.531803,18653.189738,-70634.004916,5181.441594
1599.534352,-6513.812290,-73698.386908,7105.977043
1599.536901,15248.242405,-77222.426198,-2072.576638
1599.539451,-8142.265362,-79367.493593,-0.000000
1599.542000,17468.860231,-70634.004916,11695.253884
1599.544549,21762.054695,-69408.252119,9030.512492
1599.547098,3108.864956,-73085.510509,18061.024985
1599.549648,10658.965565,-77528.864398,10066.800811
1599.552204,-7105.977043,-77988.521696,-592.164754
1599.554761,21614.013506,-73851.606007,6661.853478
1599.557317,5477.523971,-72472.634111,6809.894666
1599.559874,-148.041188,-71093.662214,15544.324782
1599.562431,-29460.196492,-77682.083497,-10510.924376
1599.564987,-3552.988522,-75690.235202,-10066.800811
1599.567544,-2664.741391,-75230.577904,-5625.565159
1599.570100,-7994.224174,-71400.100414,-5477.523971
1599.572657,1332.370696,-72779.072310,-1628.453072
1599.575214,-10510.924376,-75383.797003,-2664.741391
1599.577770,-15100.201217,-73851.606007,-2220.617826
1599.580327,-7698.141797,-77222.426198,740.205942
1599.582883,-13323.706956,-75230.577904,2812.782580
1599.585440,-6661.853478,-74770.920605,4737.318029
1599.587996,5033.400406,-72625.853210,4441.235652
1599.590553,-10955.047942,-73391.948708,-3404.947333
1599.593110,-6365.771101,-76149.892501,-7698.141797
1599.595666,-6069.688724,-77528.864398,-12139.377449
1599.598223,-7994.224174,-74770.920605,-9918.759623
1599.600779,-3701.029710,-73391.948708,-6513.812290
1599.603336,-10066.800811,-72012.976812,-2072.576638
1599.605893,5181.441594,-73391.948708,6069.688724
1599.608449,-15692.365970,-76456.330700,-296.082377
1599.611006,13915.871710,-76303.111601,3849.070898
1599.613562,10214.842000,-75843.454302,5329.482782
1599.616119,29164.114115,-70787.224015,18801.230927
1599.618676,4589.276840,-73238.729609,19393.395680
1599.621232,2960.823768,-74770.920605,8734.430116
1599.623789,-3701.029710,-77222.426198,-1332.370696
1599.626345,11843.295072,-74004.825107,-2960.823768
1599.628902,15692.365970,-72166.195912,9474.636058
1599.631459,8734.430116,-73698.386908,17912.983796
1599.634015,35825.967593,-73391.948708,14656.077652
1599.636572,-28868.031738,-78754.617194,-10362.883188
1599.639128,15396.283594,-77222.426198,5625.565159
1599.641685,28868.031738,-72319.415011,13767.830521
1599.644242,-1480.411884,-68488.937521,16432.571912
1599.646798,14804.118840,-72779.072310,11103.089130
1599.649355,-12879.583391,-75690.235202,3404.947333
1599.651911,12435.459826,-78141.740796,148.041188
1599.654440,11695.253884,-73391.948708,7550.100608
1599.656969,14359.995275,-71706.538613,11103.089130
1599.659498,-17616.901420,-72625.853210,9326.594869
1599.662027,-8142.265362,-76456.330700,-13619.789333
1599.664556,-15840.407159,-75537.016103,-13619.789333
1599.667085,888.247130,-73238.729609,-8142.265362
1599.669614,-8290.306550,-71859.757712,-4589.276840
1599.672143,740.205942,-73391.948708,888.247130
1599.674672,-9178.553681,-74158.044206,-2072.576638
1599.677200,-22650.301825,-74311.263306,-2960.823768
1599.679729,-3404.947333,-76456.330700,-4293.194464
1599.682258,13915.871710,-74617.701505,1776.494261
1599.684787,-8586.388927,-72012.976812,3256.906145
1599.687316,1184.329507,-72319.415011,3108.864956
1599.689845,-15840.407159,-74464.482406,-5329.482782
1599.692374,-16284.530724,-76456.330700,-8882.471304
1599.694903,-6809.894666,-76303.111601,-13767.830521
1599.697432,-8438.347739,-72932.291410,-11399.171507
1599.699961,-1924.535449,-71093.662214,-4589.276840
1599.702490,-592.164754,-72625.853210,2368.659014
1599.705018,-6365.771101,-73698.386908,5033.400406
1599.707547,-2220.617826,-76915.987999,-2072.576638
1599.710076,5921.647536,-77069.207099,4885.359217
1599.712605,26499.372724,-73545.167808,11991.336260
1599.715134,13767.830521,-70327.566716,17468.860231
1599.717663,2368.659014,-73391.948708,12287.418637
1599.720192,-2960.823768,-77835.302597,2368.659014
1599.722721,-9178.553681,-75230.577904,-4441.235652
1599.725250,9622.677246,-72472.634111,1776.494261
1599.727779,6069.688724,-71093.662214,5477.523971
1599.730308,14063.912898,-71706.538613,19541.436869
1599.732836,4293.194464,-77222.426198,2220.617826
1599.735365,-32124.937883,-78294.959896,-3997.112087
1599.737894,25315.043216,-74464.482406,12583.501014
1599.740423,13767.830521,-70327.566716,10955.047942
1599.742952,19689.478057,-70021.128517,17172.777854
1599.745481,2368.659014,-76762.768900,10362.883188
1599.748010,-5477.523971,-75843.454302,4737.318029
1599.750539,25907.207970,-76762.768900,3552.988522
1599.753068,-1628.453072,-72166.195912,8586.388927
1599.755608,1628.453072,-71553.319513,11103.089130
1599.758148,-30496.484810,-77069.207099,-11991.336260
1599.760689,-3404.947333,-74770.920605,-10066.800811
1599.763229,-8142.265362,-75996.673402,-12879.583391
1599.765770,-9326.594869,-71246.881314,-7402.059420
1599.768310,3701.029710,-73085.510509,-5181.441594
1599.770850,-16728.654289,-73545.167808,-2220.617826
1599.773391,-11843.295072,-74158.044206,1184.329507
1599.775931,12287.418637,-74617.701505,-4737.318029
1599.778471,-14211.954086,-75690.235202,-12435.459826
1599.781012,-11251.130318,-74770.920605,4145.153275
1599.783552,16580.613101,-72012.976812,7698.141797
1599.786092,-21317.931130,-73851.606007,-3404.947333
1599.788633,-296.082377,-75383.797003,-6513.812290
1599.791173,-6661.853478,-79520.712692,-14063.912898
1599.793713,-22650.301825,-73391.948708,-12435.459826
1599.796254,9622.677246,-71400.100414,-5477.523971
1599.798794,-13175.665768,-71400.100414,-1480.411884
1599.801334,3404.947333,-72472.634111,7254.018232
1599.803875,-11547.212695,-77835.302597,-3997.112087
1599.806415,7254.018232,-75843.454302,6513.812290
1599.808956,24722.878463,-75690.235202,6661.853478
1599.811496,6513.812290,-71093.662214,20725.766376
1599.814036,14952.160028,-72779.072310,11399.171507
1599.816577,-12139.377449,-75690.235202,1184.329507
1599.819117,-1480.411884,-76303.111601,-1332.370696
1599.821657,17172.777854,-74004.825107,-1036.288319
1599.824198,26055.249158,-70174.347617,6365.771101
1599.826738,27091.537477,-72932.291410,8586.388927
1599.829278,3552.988522,-73851.606007,5181.441594
1599.831819,9918.759623,-78601.398095,-0.000000
1599.834359,8586.388927,-75843.454302,11399.171507
1599.836899,23686.590144,-72932.291410,18949.272115
1599.839440,8586.388927,-73391.948708,18357.107362
1599.841980,14211.954086,-74464.482406,11547.212695
1599.844520,-3849.070898,-77528.864398,2664.741391
1599.847061,26055.249158,-74617.701505,4737.318029
1599.849601,2368.659014,-73698.386908,6217.729913
1599.852142,-4885.359217,-71859.757712,13027.624579
1599.854682,-30644.525999,-77528.864398,-8290.306550
1599.857231,1184.329507,-75077.358804,-5921.647536
1599.859781,-10510.924376,-75230.577904,-13619.789333
1599.862331,-7698.141797,-71859.757712,-6957.935855
1599.864881,2368.659014,-74770.920605,-5033.400406
1599.867431,-20133.601622,-74770.920605,-444.123565
1599.869981,-17764.942608,-75383.797003,3404.947333
1599.872531,-6217.729913,-77835.302597,-444.123565
1599.875081,-13619.789333,-74770.920605,6809.894666
1599.877631,29460.196492,-75383.797003,-7402.059420
1599.880181,-52110.498317,-72012.976812,-11695.253884
1599.882732,14508.036463,-73391.948708,6069.688724
1599.885282,-24722.878463,-77835.302597,-4293.194464
1599.887832,-29904.320057,-75690.235202,-8734.430116
1599.890382,8882.471304,-74464.482406,-16284.530724
1599.892932,-20873.807564,-70634.004916,-4737.318029
1599.895482,13323.706956,-72012.976812,-1480.411884
1599.898032,-14656.077652,-72319.415011,4441.235652
1599.900582,1332.370696,-76456.330700,-2368.659014
1599.903132,2516.700203,-76762.768900,6069.688724
1599.905682,31532.773129,-73698.386908,16284.530724
1599.908232,9030.512492,-71093.662214,18357.107362
1599.910782,9178.553681,-73391.948708,9178.553681
1599.913332,-10362.883188,-76456.330700,444.123565
1599.915882,888.247130,-75690.235202,-2072.576638
1599.918432,19097.313304,-72625.853210,-740.205942
1599.920982,27683.702231,-70940.443115,4885.359217
1599.923532,3108.864956,-72166.195912,9622.677246
1599.926082,14211.954086,-75230.577904,-8734.430116
1599.928633,-10362.883188,-79367.493593,1036.288319
1599.931183,16136.489536,-73085.510509,13027.624579
1599.933733,21021.848753,-70634.004916,14804.118840
1599.936283,14063.912898,-71553.319513,13323.706956
1599.938807,4589.276840,-75843.454302,3256.906145
1599.941332,888.247130,-76149.892501,2812.782580
1599.943857,14656.077652,-73698.386908,6069.688724
1599.946382,3701.029710,-72166.195912,10955.047942
1599.948907,-15100.201217,-72779.072310,1628.453072
1599.951431,-18505.148550,-75230.577904,-13767.830521
1599.953956,-7994.224174,-74770.920605,-11547.212695
1599.956481,-4293.194464,-73851.606007,-11103.089130
1599.959006,-8586.388927,-72779.072310,-6217.729913
1599.961530,-1480.411884,-74004.825107,-1332.370696
1599.964055,-740.205942,-74464.482406,-296.082377
1599.966580,-13619.789333,-75537.016103,-740.205942
1599.969105,-7846.182985,-75843.454302,-4441.235652
1599.971630,9178.553681,-75077.358804,444.123565
1599.974154,-5625.565159,-73085.510509,-1036.288319
1599.976679,-15396.283594,-71706.538613,1924.535449
1599.979204,9030.512492,-75537.016103,-740.205942
1599.981729,-19097.313304,-76915.987999,-15840.407159
1599.984253,-11399.171507,-74924.139704,-14804.118840
1599.986778,-2516.700203,-72625.853210,-11399.171507
1599.989303,-5181.441594,-70327.566716,-3997.112087
1599.991828,-3701.029710,-73085.510509,6069.688724
1599.994353,-9770.718434,-75690.235202,3404.947333
1599.996877,-0.000000,-76915.987999,1924.535449
1599.999402,23094.425390,-74924.139704,10807.006753
1600.001927,25463.084405,-71246.881314,17320.819043
1600.004452,4441.235652,-73238.729609,16136.489536
1600.006976,148.041188,-75077.358804,5329.482782
1600.009501,-10658.965565,-76609.549800,-296.082377
1600.012026,6809.894666,-75077.358804,-888.247130
1600.014551,20429.683999,-71093.662214,7402.059420
1600.017075,30200.402434,-72625.853210,13175.665768
1600.019600,14211.954086,-74158.044206,2516.700203
1600.022125,-21317.931130,-78141.740796,-2516.700203
1600.024650,11547.212695,-76609.549800,10807.006753
1600.027175,-1036.288319,-72932.291410,17616.901420
1600.029699,20577.725188,-70480.785816,18061.024985
1600.032224,9326.594869,-73851.606007,8586.388927
1600.034749,-5033.400406,-74924.139704,2812.782580
1600.037274,30200.402434,-76609.549800,9326.594869
1600.039798,-4293.194464,-74464.482406,4885.359217
1600.042323,-4885.359217,-72319.415011,14063.912898
1600.044848,-22354.219448,-77835.302597,-9326.594869
1600.047373,-4441.235652,-72932.291410,-7550.100608
1600.049898,1184.329507,-75537.016103,-12583.501014
1600.052422,-15396.283594,-72012.976812,-7698.141797
1600.054947,10066.800811,-74617.701505,-5181.441594
1600.057472,-13323.706956,-74311.263306,-3849.070898
1600.060010,-9622.677246,-71553.319513,-0.000000
1600.062548,7105.977043,-74924.139704,-1036.288319
1600.065086,-19097.313304,-75996.673402,-9622.677246
1600.067624,2812.782580,-73238.729609,-6217.729913
1600.070162,-11399.171507,-73391.948708,2368.659014
1600.072700,-6957.935855,-73085.510509,-296.082377
1600.075239,-9770.718434,-77375.645298,-11103.089130
1600.077777,-19393.395680,-75690.235202,-14508.036463
1600.080315,-0.000000,-73238.729609,-14656.077652
1600.082853,-11991.336260,-72012.976812,-3256.906145
1600.085391,7105.977043,-71706.538613,4589.276840
1600.087929,-25759.166782,-75690.235202,8142.265362
1600.090467,18801.230927,-77069.207099,5477.523971
1600.093005,-5773.606348,-77069.207099,6217.729913
1600.095543,33753.390955,-70940.443115,19393.395680
1600.098081,6365.771101,-73085.510509,17468.860231
1600.100620,2664.741391,-74617.701505,9918.759623
1600.103158,-2072.576638,-77222.426198,296.082377
1600.105696,-12435.459826,-72932.291410,-2072.576638
1600.108234,19689.478057,-69867.909418,-444.123565
1600.110772,-12879.583391,-70480.785816,-3997.112087
1600.113310,7698.141797,-75077.358804,21317.931130
1600.115848,36270.091158,-83351.190182,9622.677246
1600.118386,-25315.043216,-78141.740796,3849.070898
1600.120924,42487.821071,-73238.729609,13915.871710
1600.123462,-3256.906145,-72166.195912,13027.624579
1600.126000,22058.137072,-73391.948708,14656.077652
1600.128539,2960.823768,-75996.673402,5329.482782
1600.131077,2516.700203,-74158.044206,8438.347739
1600.133615,15544.324782,-75077.358804,5033.400406
1600.136153,-24722.878463,-73391.948708,9030.512492
1600.138691,-14804.118840,-77222.426198,-8290.306550
1600.141239,-8290.306550,-73851.606007,-6365.771101
1600.143788,2516.700203,-73085.510509,-10362.883188
1600.146336,-15692.365970,-72625.853210,-10362.883188
1600.148885,4441.235652,-75230.577904,-4885.359217
1600.151433,-6069.688724,-74770.920605,-2812.782580
1600.153981,-7698.141797,-73545.167808,740.205942
1600.156530,-2516.700203,-74770.920605,-7254.018232
1600.159078,-8438.347739,-74311.263306,-1036.288319
1600.161627,-888.247130,-75996.673402,7550.100608
1600.164175,-17468.860231,-71246.881314,-1184.329507
1600.166723,-13915.871710,-73391.948708,-2368.659014
1600.169272,-10362.883188,-77528.864398,-10807.006753
1600.171820,-11103.089130,-76149.892501,-16432.571912
1600.174369,740.205942,-72625.853210,-8882.471304
1600.176917,-5773.606348,-71400.100414,-2812.782580
1600.179465,1776.494261,-72012.976812,5181.441594
1600.182014,-17172.777854,-75996.673402,1036.288319
1600.184562,12287.418637,-77222.426198,6661.853478
1600.187111,10955.047942,-76915.987999,9178.553681
1600.189659,22650.301825,-71246.881314,18653.189738
1600.192207,5033.400406,-72932.291410,12139.377449
1600.194756,-5625.565159,-75077.358804,5921.647536
1600.197304,-5181.441594,-75383.797003,-1184.329507
1600.199853,-8290.306550,-74311.263306,-592.164754
1600.202401,18061.024985,-69867.909418,1036.288319
1600.204950,8586.388927,-71093.662214,14211.954086
1600.207498,28127.825796,-75690.235202,5625.565159
1600.210046,-16136.489536,-80899.684589,1184.329507
1600.212595,16876.695478,-74770.920605,10362.883188
1600.215143,14656.077652,-70787.224015,13175.665768
1600.217692,18801.230927,-71093.662214,15988.448347
1600.220240,10066.800811,-75843.454302,8438.347739
1600.222788,4441.235652,-75996.673402,4441.235652
1600.225337,5773.606348,-74004.825107,6217.729913
1600.227885,8438.347739,-73238.729609,10658.965565
1600.230434,-30792.567187,-73851.606007,-5181.441594
1600.232982,-1776.494261,-75537.016103,-10658.965565
1600.235530,-21910.095883,-73238.729609,-16284.530724
1600.238079,4885.359217,-71859.757712,-11103.089130
1600.240627,-13027.624579,-74158.044206,-8882.471304
1600.243184,-8142.265362,-75383.797003,1480.411884
1600.245740,1628.453072,-76303.111601,2072.576638
1600.248297,-11251.130318,-72779.072310,-3701.029710
1600.250853,-1332.370696,-76149.892501,-7105.977043
1600.253410,-4441.235652,-75843.454302,740.205942
1600.255966,8438.347739,-73851.606007,3701.029710
1600.258523,-18505.148550,-73238.729609,-2960.823768
1600.261079,-5921.647536,-74464.482406,-8290.306550
1600.263636,-5921.647536,-77222.426198,-19689.478057
1600.266193,-14063.912898,-74158.044206,-13767.830521
1600.268749,5033.400406,-71859.757712,-6809.894666
1600.271306,-8882.471304,-70940.443115,3552.988522
1600.273862,-1924.535449,-74464.482406,12435.459826
1600.276419,-3404.947333,-78141.740796,-0.000000
1600.278975,5181.441594,-76456.330700,9918.759623
1600.281532,34641.638086,-74770.920605,14063.912898
1600.284088,148.041188,-71246.881314,18653.189738
1600.286645,17320.819043,-73851.606007,11991.336260
1600.289201,-15692.365970,-75996.673402,-1924.535449
1600.291758,-5625.565159,-74311.263306,-3108.864956
1600.294314,15100.201217,-70787.224015,-4885.359217
1600.296871,15544.324782,-71093.662214,4441.235652
1600.299427,6069.688724,-73851.606007,10066.800811
1600.301984,2368.659014,-76915.987999,-2516.700203
1600.304540,-1480.411884,-76762.768900,5477.523971
1600.307097,-444.123565,-72625.853210,14952.160028
1600.309654,11399.171507,-69408.252119,14063.912898
1600.312210,13175.665768,-72932.291410,6365.771101
1600.314767,-1480.411884,-75230.577904,2368.659014
1600.317323,22650.301825,-75690.235202,11695.253884
1600.319880,-9918.759623,-74617.701505,8734.430116
1600.322436,-23834.631332,-73545.167808,6217.729913
1600.324993,-12731.542202,-78754.617194,-9918.759623
1600.327549,-8142.265362,-73238.729609,-5921.647536
1600.330106,7846.182985,-72472.634111,-10214.842000
1600.332662,-19541.436869,-71859.757712,-8882.471304
1600.335219,13027.624579,-76609.549800,-1480.411884
1600.337775,-31236.690752,-76609.549800,-3701.029710
1600.340332,-16580.613101,-74770.920605,6365.771101
1600.342888,17912.983796,-75383.797003,13619.789333
1600.345452,-19097.313304,-76149.892501,-1924.535449
1600.348015,-10214.842000,-75996.673402,8586.388927
1600.350578,10658.965565,-73851.606007,3256.906145
1600.353141,-30348.443622,-74617.701505,-2812.782580
1600.355705,740.205942,-77528.864398,-9918.759623
1600.358268,-20429.683999,-76456.330700,-12583.501014
1600.360831,1628.453072,-72625.853210,-4441.235652
1600.363394,-2368.659014,-71706.538613,296.082377
1600.365958,-5625.565159,-71246.881314,9030.512492
1600.368521,-2812.782580,-77069.207099,-5773.606348
1600.371084,2072.576638,-76149.892501,9030.512492
1600.373647,31384.731941,-75690.235202,13175.665768
1600.376211,14508.036463,-71706.538613,20873.807564
1600.378774,18949.272115,-73238.729609,13027.624579
1600.381337,-16284.530724,-76915.987999,-148.041188
1600.383901,7994.224174,-73545.167808,-4145.153275
1600.386464,11251.130318,-73238.729609,-0.000000
1600.389027,444.123565,-71553.319513,12435.459826
1600.391590,54923.280896,-72625.853210,23242.466579
1600.394154,-18653.189738,-76303.111601,-7105.977043
1600.396717,-4589.276840,-76149.892501,-2368.659014
1600.399280,41895.656317,-75537.016103,12139.377449
1600.401843,-10955.047942,-70940.443115,15692.365970
1600.404407,28275.866984,-72932.291410,13471.748144
1600.406970,-888.247130,-75537.016103,7105.977043
1600.409533,21021.848753,-74158.044206,9030.512492
1600.412096,-2664.741391,-74770.920605,2072.576638
