#time,accel_x,accel_y,accel_z
658.766995,-3849.070898,-74617.701505,-888.247130
658.769641,-3997.112087,-73851.606007,-740.205942
658.772288,-3997.112087,-74311.263306,-592.164754
658.774934,-4145.153275,-74311.263306,-592.164754
658.777581,-3997.112087,-74617.701505,-592.164754
658.780227,-3849.070898,-74770.920605,-740.205942
658.782873,-3997.112087,-74464.482406,-296.082377
658.785520,-3552.988522,-74617.701505,-888.247130
658.788166,-1628.453072,-74158.044206,3404.947333
658.790812,17320.819043,-78141.740796,9770.718434
658.793459,-12139.377449,-72779.072310,-6365.771101
658.796105,21910.095883,-76149.892501,6217.729913
658.798751,-10658.965565,-74617.701505,-1184.329507
658.801398,-10807.006753,-72472.634111,9918.759623
658.804044,12583.501014,-75383.797003,15100.201217
658.806690,-4737.318029,-73085.510509,14804.118840
658.809337,9622.677246,-77069.207099,9030.512492
658.811983,-11251.130318,-76609.549800,-2812.782580
658.814629,592.164754,-75383.797003,-6661.853478
658.817276,-7550.100608,-73238.729609,-8586.388927
658.819922,444.123565,-70940.443115,-296.082377
658.822568,-8734.430116,-71553.319513,2220.617826
658.825215,-296.082377,-75230.577904,592.164754
658.827861,-18949.272115,-76609.549800,-6217.729913
658.830507,-8290.306550,-77222.426198,-7254.018232
658.833154,-8586.388927,-74617.701505,-6957.935855
658.835800,-7550.100608,-70940.443115,-5625.565159
658.838446,4145.153275,-72932.291410,-4885.359217
658.841093,-10066.800811,-75077.358804,-2664.741391
658.843739,-7105.977043,-77069.207099,-3108.864956
658.846385,-6069.688724,-77528.864398,1184.329507
658.849025,-4441.235652,-73851.606007,-4145.153275
658.851664,3108.864956,-74617.701505,-592.164754
658.854303,-11399.171507,-73698.386908,-15840.407159
658.856942,-6513.812290,-73238.729609,-5329.482782
658.859582,740.205942,-74464.482406,4441.235652
658.862221,-14359.995275,-75230.577904,-13619.789333
658.864860,-18505.148550,-74770.920605,-3849.070898
658.867499,5773.606348,-74158.044206,-5773.606348
658.870139,-20577.725188,-72625.853210,-5921.647536
658.872778,9326.594869,-74004.825107,-12879.583391
658.875417,-18505.148550,-73545.167808,-11695.253884
658.878056,-2664.741391,-74617.701505,-3404.947333
658.880695,-4885.359217,-74770.920605,-2368.659014
658.883335,-20133.601622,-72319.415011,2220.617826
658.885974,-6365.771101,-75077.358804,-2960.823768
658.888613,-18061.024985,-74158.044206,-7698.141797
658.891252,4589.276840,-75690.235202,-10658.965565
658.893892,-1184.329507,-74158.044206,-6957.935855
658.896531,-8586.388927,-73545.167808,-3552.988522
658.899170,-15840.407159,-74311.263306,-4885.359217
658.901809,-16284.530724,-73698.386908,-4885.359217
658.904448,-2368.659014,-75077.358804,-5181.441594
658.907088,14804.118840,-73545.167808,10807.006753
658.909727,-6217.729913,-73698.386908,888.247130
658.912366,592.164754,-76303.111601,2072.576638
658.915005,-7254.018232,-77835.302597,-5329.482782
658.917645,-16284.530724,-74158.044206,-2664.741391
658.920284,8734.430116,-72319.415011,-0.000000
658.922923,148.041188,-72932.291410,1480.411884
658.925562,1036.288319,-73698.386908,5625.565159
658.928202,5773.606348,-75537.016103,7402.059420
658.930841,-5921.647536,-74617.701505,9178.553681
658.933480,2812.782580,-77528.864398,7105.977043
658.936119,-8290.306550,-75230.577904,-3108.864956
658.938758,-9326.594869,-71859.757712,-3256.906145
658.941398,12583.501014,-73238.729609,-148.041188
658.944037,-3997.112087,-73391.948708,3256.906145
658.946676,17172.777854,-76303.111601,4589.276840
658.949315,-3997.112087,-77222.426198,3256.906145
658.951955,2664.741391,-76149.892501,7550.100608
658.954589,13915.871710,-76762.768900,3256.906145
658.957222,-15396.283594,-73545.167808,-14804.118840
658.959855,-4441.235652,-71400.100414,6069.688724
658.962488,-148.041188,-76303.111601,-296.082377
658.965121,-13323.706956,-74158.044206,3849.070898
658.967754,22502.260637,-78601.398095,1924.535449
658.970387,-19393.395680,-74924.139704,8882.471304
658.973020,38194.626607,-77835.302597,9326.594869
658.975653,-9770.718434,-72779.072310,6069.688724
658.978286,296.082377,-73545.167808,9178.553681
658.980919,1628.453072,-77222.426198,-296.082377
658.983552,-13175.665768,-75537.016103,-1480.411884
658.986185,4885.359217,-75996.673402,-1480.411884
658.988817,-7550.100608,-71553.319513,296.082377
658.991450,14508.036463,-73238.729609,4737.318029
658.994083,-3404.947333,-72779.072310,7550.100608
658.996716,2516.700203,-76609.549800,6069.688724
658.999349,-7846.182985,-77988.521696,-0.000000
659.001982,-5477.523971,-75383.797003,-1184.329507
659.004615,11991.336260,-74311.263306,6957.935855
659.007248,-5181.441594,-73085.510509,6809.894666
659.009881,-8438.347739,-73391.948708,-20577.725188
659.012514,-23686.590144,-75383.797003,-14656.077652
659.015147,4589.276840,-72779.072310,7402.059420
659.017780,592.164754,-73238.729609,3404.947333
659.020413,-15988.448347,-72012.976812,3849.070898
659.023046,-1924.535449,-78448.178995,-6661.853478
659.025679,-10510.924376,-76303.111601,-8290.306550
659.028312,-1924.535449,-75077.358804,-7254.018232
659.030945,-9770.718434,-72166.195912,-4145.153275
659.033578,-3256.906145,-74158.044206,-2368.659014
659.036211,-14359.995275,-73391.948708,-7254.018232
659.038844,-11991.336260,-73391.948708,-5625.565159
659.041477,-2072.576638,-75383.797003,-2812.782580
659.044110,-6661.853478,-75230.577904,-2220.617826
659.046743,3849.070898,-74924.139704,-592.164754
659.049376,-10955.047942,-75383.797003,740.205942
659.052009,148.041188,-74004.825107,-10362.883188
659.054642,-5477.523971,-74924.139704,-15544.324782
659.057274,-10066.800811,-72625.853210,-16580.613101
659.059898,-5773.606348,-72319.415011,9770.718434
659.062521,-11399.171507,-72319.415011,-7402.059420
659.065144,-15840.407159,-74464.482406,4589.276840
659.067767,7846.182985,-77222.426198,-5773.606348
659.070390,-30052.361245,-74464.482406,-8586.388927
659.073013,16580.613101,-75843.454302,-5181.441594
659.075636,-444.123565,-73391.948708,-10807.006753
659.078259,-13915.871710,-72319.415011,-4145.153275
659.080882,5329.482782,-75843.454302,-1924.535449
659.083505,-25463.084405,-73545.167808,-4145.153275
659.086128,-3849.070898,-76456.330700,-4885.359217
659.088751,-11399.171507,-73391.948708,-8142.265362
659.091374,-1332.370696,-73851.606007,-6957.935855
659.093997,3701.029710,-74617.701505,-2072.576638
659.096620,-11103.089130,-74004.825107,-4885.359217
659.099243,-18357.107362,-74770.920605,-7105.977043
659.101866,-15248.242405,-74004.825107,-7994.224174
659.104489,-3404.947333,-73238.729609,-9622.677246
659.107112,16876.695478,-72779.072310,14508.036463
659.109735,-13619.789333,-72319.415011,3404.947333
659.112358,8734.430116,-75996.673402,3849.070898
659.114982,3701.029710,-80440.027290,592.164754
659.117605,-17764.942608,-74770.920605,148.041188
659.120228,19393.395680,-74004.825107,1036.288319
659.122851,-10658.965565,-70940.443115,1184.329507
659.125474,11843.295072,-74617.701505,5033.400406
659.128097,-2664.741391,-74770.920605,3256.906145
659.130720,1924.535449,-74004.825107,7402.059420
659.133343,1924.535449,-77988.521696,5921.647536
659.135966,-10658.965565,-75230.577904,-296.082377
659.138589,1036.288319,-73085.510509,-592.164754
659.141212,2220.617826,-73391.948708,1480.411884
659.143835,5033.400406,-73391.948708,888.247130
659.146458,7994.224174,-73545.167808,-1036.288319
659.149081,-4145.153275,-76149.892501,7105.977043
659.151704,-13471.748144,-75537.016103,1628.453072
659.154327,-8142.265362,-73391.948708,8142.265362
659.156950,19837.519246,-75996.673402,-3108.864956
659.159573,-25907.207970,-73085.510509,-3404.947333
659.162196,15100.201217,-75843.454302,14063.912898
659.164812,3108.864956,-76915.987999,-5625.565159
659.167428,-12879.583391,-75230.577904,7254.018232
659.170043,23538.548956,-79061.055394,7846.182985
659.172659,-20133.601622,-71093.662214,6069.688724
659.175274,14508.036463,-73851.606007,9326.594869
659.177890,-10807.006753,-74464.482406,2368.659014
659.180506,-2664.741391,-75230.577904,-1480.411884
659.183121,-296.082377,-75690.235202,-7550.100608
659.185737,-7550.100608,-73391.948708,-4885.359217
659.188353,21910.095883,-73851.606007,10510.924376
659.190968,-6809.894666,-74004.825107,7402.059420
659.193584,-2960.823768,-74617.701505,6069.688724
659.196199,-4293.194464,-77682.083497,1776.494261
659.198815,-444.123565,-76149.892501,-5625.565159
659.201431,7254.018232,-74004.825107,2960.823768
659.204046,-2812.782580,-73238.729609,3552.988522
659.206662,-18653.189738,-73391.948708,-9770.718434
659.209277,-2220.617826,-74924.139704,-3997.112087
659.211893,-20873.807564,-73545.167808,-2960.823768
659.214509,9622.677246,-75077.358804,-296.082377
659.217124,-18357.107362,-75537.016103,-7105.977043
659.219740,-3108.864956,-75077.358804,-5625.565159
659.222356,-7402.059420,-74464.482406,-4737.318029
659.224971,-6957.935855,-72625.853210,-1480.411884
659.227587,-1184.329507,-76149.892501,-5033.400406
659.230202,-13915.871710,-76149.892501,-7105.977043
659.232818,-8734.430116,-74158.044206,-7846.182985
659.235434,-12879.583391,-72779.072310,-4737.318029
659.238049,-5329.482782,-73085.510509,-1332.370696
659.240665,3552.988522,-74464.482406,-4885.359217
659.243281,-1776.494261,-74770.920605,-5773.606348
659.245896,-1480.411884,-75537.016103,-3256.906145
659.248512,2664.741391,-77835.302597,6217.729913
659.251127,-6661.853478,-74770.920605,-12139.377449
659.253743,-8438.347739,-72472.634111,-296.082377
659.256359,-148.041188,-73085.510509,-4737.318029
659.258974,-34049.473332,-69101.813920,-7254.018232
659.261590,10955.047942,-80133.589091,4589.276840
659.264205,-45892.768404,-73545.167808,-16284.530724
659.266821,12435.459826,-75843.454302,-7402.059420
659.269429,15248.242405,-74158.044206,-10510.924376
659.272036,-27387.619854,-70480.785816,-5773.606348
659.274644,9770.718434,-75690.235202,-4589.276840
659.277251,-28868.031738,-73698.386908,-7994.224174
659.279859,-1628.453072,-76456.330700,-6661.853478
659.282466,-5625.565159,-74464.482406,-4589.276840
659.285074,888.247130,-73085.510509,-296.082377
659.287682,-2220.617826,-74004.825107,-3108.864956
659.290289,-24870.919651,-73391.948708,-9770.718434
659.292897,-10066.800811,-75537.016103,-10807.006753
659.295504,-10510.924376,-76456.330700,-14211.954086
659.298112,17024.736666,-72932.291410,-444.123565
659.300719,-14952.160028,-70480.785816,1924.535449
659.303327,16580.613101,-72932.291410,12731.542202
659.305935,-14211.954086,-76303.111601,6069.688724
659.308542,-10955.047942,-77222.426198,2072.576638
659.311150,10066.800811,-77835.302597,-5181.441594
659.313757,-9030.512492,-73545.167808,-5477.523971
659.316365,11843.295072,-72779.072310,592.164754
659.318972,-8142.265362,-71246.881314,1332.370696
659.321580,3701.029710,-73238.729609,8586.388927
659.324188,-3701.029710,-76762.768900,9178.553681
659.326795,-3404.947333,-76915.987999,4885.359217
659.329403,740.205942,-75383.797003,1924.535449
659.332010,1184.329507,-73391.948708,1480.411884
659.334618,6661.853478,-72319.415011,2664.741391
659.337225,5773.606348,-72932.291410,-1332.370696
659.339833,-1628.453072,-74617.701505,4885.359217
659.342441,6217.729913,-75537.016103,3404.947333
659.345048,-26203.290347,-73851.606007,-13027.624579
659.347656,1924.535449,-73238.729609,14359.995275
659.350263,13471.748144,-77222.426198,-10510.924376
659.352871,-27239.578666,-70327.566716,1480.411884
659.355478,33309.267390,-80899.684589,14508.036463
659.358086,-38342.667796,-73238.729609,2664.741391
659.360693,33457.308578,-79061.055394,11695.253884
659.363301,-12435.459826,-75230.577904,9030.512492
659.365909,-10807.006753,-71706.538613,888.247130
659.368516,7254.018232,-77222.426198,888.247130
659.371124,-15692.365970,-72779.072310,-3256.906145
659.373726,13323.706956,-75537.016103,148.041188
659.376328,148.041188,-72779.072310,5773.606348
659.378930,4145.153275,-74464.482406,6661.853478
659.381531,-0.000000,-76303.111601,7254.018232
659.384133,-10214.842000,-75383.797003,3552.988522
659.386735,10955.047942,-76609.549800,-1036.288319
659.389337,2960.823768,-73085.510509,5773.606348
659.391939,-6661.853478,-72472.634111,-592.164754
659.394541,-15100.201217,-75996.673402,-6513.812290
659.397143,-740.205942,-74311.263306,-1776.494261
659.399745,-17024.736666,-72932.291410,-1924.535449
659.402347,5181.441594,-74617.701505,-2368.659014
659.404949,-13619.789333,-75690.235202,-9030.512492
659.407551,-8438.347739,-75537.016103,-6809.894666
659.410152,-9030.512492,-73085.510509,-3997.112087
659.412754,-5477.523971,-72625.853210,148.041188
659.415356,-2516.700203,-75383.797003,-3256.906145
659.417958,-11399.171507,-75843.454302,-6957.935855
659.420560,-13619.789333,-75077.358804,-9770.718434
659.423162,-10658.965565,-72166.195912,-3256.906145
659.425764,-5921.647536,-74004.825107,-1332.370696
659.428366,-7994.224174,-75690.235202,-1332.370696
659.430968,7846.182985,-74464.482406,-6661.853478
659.433570,-6809.894666,-76456.330700,-3849.070898
659.436172,-14211.954086,-75230.577904,-14656.077652
659.438773,-4293.194464,-73851.606007,-148.041188
659.441375,4441.235652,-73545.167808,2072.576638
659.443977,-18801.230927,-73085.510509,2368.659014
659.446579,-148.041188,-74617.701505,-5329.482782
659.449181,-8142.265362,-75383.797003,-4885.359217
659.451783,-10362.883188,-74158.044206,-10807.006753
659.454385,-2664.741391,-74464.482406,-8734.430116
659.456980,-4145.153275,-72472.634111,-4885.359217
659.459575,-10066.800811,-73851.606007,-5033.400406
659.462171,-16284.530724,-74311.263306,-7698.141797
659.464766,-8438.347739,-74924.139704,-3701.029710
659.467361,-3701.029710,-75843.454302,-3256.906145
659.469956,-2072.576638,-73698.386908,1332.370696
659.472552,-3552.988522,-73545.167808,1480.411884
659.475147,-21465.972318,-74158.044206,-8290.306550
659.477742,-17320.819043,-74770.920605,-13175.665768
659.480337,-3404.947333,-74924.139704,-15544.324782
659.482933,1776.494261,-72932.291410,9770.718434
659.485528,5033.400406,-73085.510509,3108.864956
659.488123,-8586.388927,-72472.634111,12139.377449
659.490718,11547.212695,-78754.617194,14952.160028
659.493314,-17320.819043,-75077.358804,1776.494261
659.495909,13323.706956,-78141.740796,-3701.029710
659.498504,-10807.006753,-73085.510509,-8290.306550
659.501099,-4145.153275,-71246.881314,-1184.329507
659.503695,9622.677246,-72166.195912,5181.441594
659.506290,-7105.977043,-71553.319513,9770.718434
659.508885,4885.359217,-77069.207099,8290.306550
659.511480,-14211.954086,-77222.426198,1480.411884
659.514076,1924.535449,-75230.577904,4145.153275
659.516671,2516.700203,-74004.825107,2220.617826
659.519266,-6217.729913,-71706.538613,444.123565
659.521861,3404.947333,-73545.167808,-1184.329507
659.524457,-17024.736666,-73851.606007,1332.370696
659.527052,11251.130318,-76609.549800,11843.295072
659.529647,-8734.430116,-75996.673402,2960.823768
659.532242,5181.441594,-74158.044206,5773.606348
659.534838,13767.830521,-76303.111601,-1480.411884
659.537433,-14211.954086,-71400.100414,3404.947333
659.540028,14211.954086,-74311.263306,5921.647536
659.542623,-13471.748144,-75537.016103,10362.883188
659.545218,2220.617826,-75230.577904,9918.759623
659.547814,-1776.494261,-75843.454302,4589.276840
659.550409,-4145.153275,-72012.976812,-0.000000
659.553004,5181.441594,-74617.701505,-148.041188
659.555599,1628.453072,-73545.167808,-740.205942
659.558195,2072.576638,-73851.606007,3552.988522
659.560785,2368.659014,-76303.111601,5033.400406
659.563375,-12879.583391,-75383.797003,4589.276840
659.565965,3108.864956,-76609.549800,740.205942
659.568555,8290.306550,-74617.701505,3108.864956
659.571145,2072.576638,-73085.510509,8586.388927
659.573735,-12139.377449,-74464.482406,-7105.977043
659.576325,-19245.354492,-74617.701505,-9030.512492
659.578915,-5773.606348,-73085.510509,-1332.370696
659.581505,1332.370696,-73391.948708,-4293.194464
659.584096,-12879.583391,-72625.853210,-3701.029710
659.586686,-2368.659014,-76915.987999,-7550.100608
659.589276,-13175.665768,-74924.139704,-7105.977043
659.591866,-7550.100608,-74004.825107,-2072.576638
659.594456,1776.494261,-73391.948708,592.164754
659.597046,-9030.512492,-74770.920605,-3552.988522
659.599636,-10658.965565,-75383.797003,-8882.471304
659.602226,-11843.295072,-74311.263306,-10658.965565
659.604816,-13323.706956,-73851.606007,-6365.771101
659.607406,8586.388927,-74617.701505,-2960.823768
659.609996,-6513.812290,-75383.797003,1776.494261
659.612587,-7698.141797,-74464.482406,-2368.659014
659.615177,4293.194464,-77222.426198,12287.418637
659.617767,8586.388927,-76149.892501,-592.164754
659.620357,-29164.114115,-71246.881314,-15544.324782
659.622947,-5921.647536,-70787.224015,740.205942
659.625537,7105.977043,-74924.139704,-296.082377
659.628127,-38342.667796,-70634.004916,-14211.954086
659.630717,7105.977043,-77222.426198,-5625.565159
659.633307,-24130.713709,-72625.853210,-13767.830521
659.635897,-19541.436869,-71859.757712,-7105.977043
659.638487,6809.894666,-74617.701505,-7846.182985
659.641077,-19393.395680,-72166.195912,-2960.823768
659.643668,7105.977043,-76303.111601,-4293.194464
659.646258,-11843.295072,-75077.358804,-888.247130
659.648848,-740.205942,-75843.454302,740.205942
659.651438,-19541.436869,-73851.606007,-4293.194464
659.654028,-13767.830521,-73238.729609,-6217.729913
659.656618,-3552.988522,-74770.920605,-13027.624579
659.659208,7105.977043,-74311.263306,-4737.318029
659.661798,-6809.894666,-72472.634111,6069.688724
659.664385,6957.935855,-73698.386908,10214.842000
659.666971,-7550.100608,-75996.673402,11103.089130
659.669558,-740.205942,-77222.426198,14359.995275
659.672144,3108.864956,-77069.207099,444.123565
659.674731,-6365.771101,-74770.920605,-7254.018232
659.677317,5773.606348,-74158.044206,-592.164754
659.679904,-6513.812290,-72012.976812,-1924.535449
659.682490,4737.318029,-71859.757712,6809.894666
659.685077,3849.070898,-75383.797003,10807.006753
659.687663,-1036.288319,-77069.207099,6365.771101
659.690250,-5625.565159,-76762.768900,1924.535449
659.692836,3256.906145,-74770.920605,4145.153275
659.695423,12583.501014,-74311.263306,1924.535449
659.698009,6809.894666,-74770.920605,4589.276840
659.700596,19541.436869,-74617.701505,1332.370696
659.703182,-8290.306550,-77222.426198,-9030.512492
659.705769,-14359.995275,-73851.606007,1628.453072
659.708355,2664.741391,-75230.577904,888.247130
659.710942,-7550.100608,-73851.606007,7402.059420
659.713528,16432.571912,-75996.673402,11991.336260
659.716115,-5477.523971,-74158.044206,8882.471304
659.718701,11103.089130,-74617.701505,1332.370696
659.721288,-13175.665768,-78294.959896,2664.741391
659.723874,4737.318029,-76149.892501,2664.741391
659.726461,1184.329507,-74770.920605,3849.070898
659.729047,4885.359217,-72779.072310,3701.029710
659.731634,1332.370696,-73085.510509,8290.306550
659.734220,-2664.741391,-75077.358804,1184.329507
659.736807,-5625.565159,-75843.454302,-0.000000
659.739393,-3108.864956,-76609.549800,-2812.782580
659.741980,4441.235652,-75537.016103,-1036.288319
659.744566,11695.253884,-73085.510509,9918.759623
659.747153,-4885.359217,-73238.729609,10955.047942
659.749739,-24722.878463,-73545.167808,-12731.542202
659.752326,7698.141797,-75843.454302,-444.123565
659.754912,-17616.901420,-74311.263306,-9770.718434
659.757499,3552.988522,-72932.291410,-4885.359217
659.760085,-10510.924376,-74004.825107,-8142.265362
659.762672,-17468.860231,-73391.948708,-5033.400406
659.765258,-444.123565,-75383.797003,-1628.453072
659.767840,-9326.594869,-74770.920605,-1184.329507
659.770421,-7105.977043,-74311.263306,-888.247130
659.773003,-3404.947333,-76762.768900,-7105.977043
659.775584,-19097.313304,-73085.510509,-8586.388927
659.778166,-9918.759623,-73085.510509,-9030.512492
659.780747,-20429.683999,-73545.167808,-3701.029710
659.783329,4589.276840,-74158.044206,-3552.988522
659.785910,-4441.235652,-74924.139704,2516.700203
659.788492,10510.924376,-77069.207099,-1036.288319
659.791073,-37602.461854,-75537.016103,-14952.160028
659.793655,2960.823768,-72166.195912,5625.565159
659.796236,-2812.782580,-73391.948708,-7846.182985
659.798818,-39082.873738,-70327.566716,1036.288319
659.801399,38194.626607,-79673.931792,-740.205942
659.803981,-43524.109390,-73391.948708,-13915.871710
659.806562,14656.077652,-79367.493593,-8438.347739
659.809144,-592.164754,-73698.386908,-10807.006753
659.811725,-26499.372724,-69561.471218,-5773.606348
659.814307,17468.860231,-73698.386908,-2812.782580
659.816888,-22058.137072,-73851.606007,-2516.700203
659.819470,6217.729913,-77682.083497,592.164754
659.822051,-17764.942608,-75537.016103,-1924.535449
659.824633,-18061.024985,-74004.825107,-5477.523971
659.827214,-9326.594869,-73238.729609,-11399.171507
659.829796,148.041188,-73238.729609,-11251.130318
659.832377,3849.070898,-72779.072310,3997.112087
659.834959,-444.123565,-74770.920605,-592.164754
659.837540,-9326.594869,-73698.386908,7994.224174
659.840122,8290.306550,-77682.083497,15692.365970
659.842703,-8438.347739,-75383.797003,7698.141797
659.845285,12287.418637,-76915.987999,-1628.453072
659.847866,-3997.112087,-75537.016103,-7402.059420
659.850448,296.082377,-72932.291410,-3256.906145
659.853029,-740.205942,-72319.415011,1332.370696
659.855611,2072.576638,-71859.757712,10510.924376
659.858192,2812.782580,-76303.111601,11103.089130
659.860774,888.247130,-77835.302597,7105.977043
659.863355,-1628.453072,-76762.768900,-148.041188
659.865937,-8734.430116,-73391.948708,1036.288319
659.868518,17468.860231,-73851.606007,-0.000000
659.871096,10510.924376,-74770.920605,-888.247130
659.873674,-24722.878463,-74311.263306,-9918.759623
659.876252,32865.143825,-76456.330700,21169.889941
659.878831,-32717.102636,-76915.987999,-14508.036463
659.881409,-11251.130318,-70327.566716,-2516.700203
659.883987,29608.237680,-79980.369991,10066.800811
659.886565,-52702.663070,-68335.718422,3256.906145
659.889143,31384.731941,-75996.673402,13471.748144
659.891721,-22650.301825,-74004.825107,296.082377
659.894299,740.205942,-77375.645298,5921.647536
659.896878,12287.418637,-77222.426198,-1480.411884
659.899456,2220.617826,-71246.881314,7105.977043
659.902034,6957.935855,-73545.167808,5773.606348
659.904612,-11843.295072,-74004.825107,4885.359217
659.907190,-4589.276840,-76609.549800,-444.123565
659.909768,-6809.894666,-77069.207099,-7994.224174
659.912346,15248.242405,-74770.920605,6809.894666
659.914925,296.082377,-73545.167808,10658.965565
659.917503,-13027.624579,-72166.195912,1480.411884
659.920081,-20873.807564,-76609.549800,-7105.977043
659.922659,-2516.700203,-73545.167808,4145.153275
659.925237,11843.295072,-74924.139704,-9622.677246
659.927815,-23834.631332,-72166.195912,-11547.212695
659.930393,4145.153275,-75230.577904,-6069.688724
659.932972,-11991.336260,-74770.920605,-3849.070898
659.935550,-13915.871710,-72932.291410,296.082377
659.938128,10362.883188,-76303.111601,4441.235652
659.940706,-20873.807564,-75996.673402,-1036.288319
659.943284,-8290.306550,-75077.358804,-6069.688724
659.945862,-13915.871710,-73238.729609,-11103.089130
659.948440,-22946.384202,-71859.757712,-7105.977043
659.951019,592.164754,-71859.757712,-10658.965565
659.953597,-6069.688724,-74311.263306,6365.771101
659.956175,2072.576638,-74158.044206,-7550.100608
659.958753,-45300.603650,-73851.606007,-8734.430116
659.961331,43820.191766,-79214.274493,5033.400406
659.963909,7105.977043,-74770.920605,-5181.441594
659.966487,-48113.386230,-68182.499322,-296.082377
659.969066,59956.681302,-78601.398095,4885.359217
659.971644,-59512.557737,-72625.853210,-18505.148550
659.974220,22206.178260,-80593.246390,-7254.018232
659.976795,-21465.972318,-73238.729609,-13027.624579
659.979371,-18801.230927,-71246.881314,-4145.153275
659.981947,23982.672521,-75230.577904,444.123565
659.984523,-22206.178260,-72166.195912,-1036.288319
659.987099,5773.606348,-79061.055394,-2368.659014
659.989674,-23390.507767,-75843.454302,-7105.977043
659.992250,-17764.942608,-74158.044206,-9622.677246
659.994826,-8142.265362,-73545.167808,-11251.130318
659.997402,3552.988522,-71706.538613,-5921.647536
659.999977,-7846.182985,-71246.881314,4737.318029
660.002553,15100.201217,-74924.139704,7402.059420
660.005129,-12139.377449,-77528.864398,8734.430116
660.007705,3849.070898,-77528.864398,12583.501014
660.010281,-2664.741391,-76456.330700,4589.276840
660.012856,1480.411884,-74617.701505,3552.988522
660.015432,3997.112087,-74770.920605,-3997.112087
660.018008,-5181.441594,-72472.634111,-3552.988522
660.020584,3552.988522,-72166.195912,2664.741391
660.023160,4441.235652,-74464.482406,7698.141797
660.025735,-5625.565159,-75690.235202,10658.965565
660.028311,10955.047942,-77835.302597,11991.336260
660.030887,-2664.741391,-74924.139704,592.164754
660.033463,444.123565,-75537.016103,2812.782580
660.036039,8882.471304,-74158.044206,-6957.935855
660.038614,-31088.649564,-70940.443115,-12583.501014
660.041190,42339.779882,-75230.577904,13767.830521
660.043766,-49889.880491,-73698.386908,-14359.995275
660.046342,4293.194464,-73238.729609,2960.823768
660.048918,5477.523971,-77835.302597,-1332.370696
660.051493,-23982.672521,-69714.690318,8290.306550
660.054069,38046.585419,-77222.426198,10066.800811
660.056645,-43376.068201,-70021.128517,2368.659014
660.059221,9918.759623,-78601.398095,7846.182985
660.061797,11547.212695,-76915.987999,-444.123565
660.064372,-7994.224174,-71859.757712,10807.006753
660.066948,20577.725188,-74924.139704,7254.018232
660.069524,-26499.372724,-69561.471218,1628.453072
660.072100,13323.706956,-77682.083497,1776.494261
660.074676,-17024.736666,-73698.386908,-11399.171507
660.077248,4737.318029,-73698.386908,7402.059420
660.079820,6513.812290,-76149.892501,12435.459826
660.082392,-28571.949361,-72472.634111,-9030.512492
660.084965,2516.700203,-77222.426198,-1332.370696
660.087537,-25611.125593,-71553.319513,-4441.235652
660.090109,9770.718434,-74158.044206,-9474.636058
660.092682,-22650.301825,-73238.729609,-13027.624579
660.095254,-0.000000,-74617.701505,-9178.553681
660.097826,2664.741391,-74158.044206,-1036.288319
660.100399,-18801.230927,-72166.195912,-1036.288319
660.102971,8438.347739,-76303.111601,3108.864956
660.105543,-16728.654289,-77682.083497,-4293.194464
660.108115,-10807.006753,-75383.797003,-7550.100608
660.110688,-14508.036463,-73851.606007,-9326.594869
660.113260,-25463.084405,-71400.100414,-8586.388927
660.115832,2072.576638,-73085.510509,-13175.665768
660.118405,5625.565159,-72932.291410,-8290.306550
660.120977,-33457.308578,-72932.291410,-4145.153275
660.123549,12139.377449,-79214.274493,-10510.924376
660.126122,-44560.397708,-74311.263306,-6365.771101
660.128694,17468.860231,-71553.319513,-2516.700203
660.131266,-11103.089130,-70787.224015,-3849.070898
660.133838,-12435.459826,-72779.072310,-10066.800811
660.136411,7698.141797,-77682.083497,-21169.889941
660.138983,-25463.084405,-74158.044206,-12879.583391
660.141555,2812.782580,-74770.920605,-6069.688724
660.144128,-14656.077652,-70634.004916,3256.906145
660.146700,2368.659014,-73545.167808,2664.741391
660.149272,-10214.842000,-75230.577904,-2220.617826
660.151845,-16432.571912,-75537.016103,-10214.842000
660.154417,-7105.977043,-76762.768900,-14211.954086
660.156989,-12731.542202,-73545.167808,-14656.077652
660.159561,12583.501014,-71246.881314,-1036.288319
660.162134,-17320.819043,-69714.690318,4737.318029
660.164706,17320.819043,-73238.729609,11547.212695
660.167278,-15100.201217,-77069.207099,7254.018232
660.169851,6365.771101,-78601.398095,11991.336260
660.172423,1628.453072,-78294.959896,4293.194464
660.174995,-8290.306550,-74158.044206,-888.247130
660.177568,9770.718434,-72932.291410,-1036.288319
660.180137,-9178.553681,-71400.100414,-1628.453072
660.182707,8438.347739,-73238.729609,3108.864956
660.185277,2368.659014,-74924.139704,8734.430116
660.187847,148.041188,-76456.330700,10510.924376
660.190417,5329.482782,-77222.426198,9030.512492
660.192987,-17468.860231,-74617.701505,740.205942
660.195557,-1776.494261,-72779.072310,-3404.947333
660.198127,-9918.759623,-74617.701505,5773.606348
660.200697,19837.519246,-72625.853210,3701.029710
660.203267,3404.947333,-75077.358804,-1924.535449
660.205837,-9474.636058,-75996.673402,-7550.100608
660.208407,3256.906145,-76456.330700,740.205942
660.210977,6513.812290,-74770.920605,2960.823768
660.213547,888.247130,-71400.100414,13175.665768
660.216117,8438.347739,-75230.577904,10510.924376
660.218687,-8290.306550,-75843.454302,3552.988522
660.221257,11547.212695,-79673.931792,1776.494261
660.223827,-4441.235652,-75077.358804,3701.029710
660.226397,8734.430116,-73085.510509,5773.606348
660.228967,-4885.359217,-72166.195912,5181.441594
660.231537,-7698.141797,-73545.167808,148.041188
660.234107,3256.906145,-75996.673402,-7105.977043
660.236677,7105.977043,-74770.920605,6365.771101
660.239247,3701.029710,-75230.577904,9770.718434
660.241816,-20281.642811,-74924.139704,-3108.864956
660.244386,-6957.935855,-75843.454302,-2664.741391
660.246956,-12879.583391,-73085.510509,1776.494261
660.249526,1924.535449,-72625.853210,-9622.677246
660.252096,-15692.365970,-73698.386908,-14804.118840
660.254666,-6365.771101,-74311.263306,-11843.295072
660.257236,-11991.336260,-72932.291410,-6661.853478
660.259806,-9622.677246,-72012.976812,740.205942
660.262376,3849.070898,-75230.577904,6365.771101
660.264946,-13915.871710,-76762.768900,-1628.453072
660.267516,-7402.059420,-77222.426198,-3701.029710
660.270086,-9326.594869,-74770.920605,-7846.182985
660.272656,-21614.013506,-71859.757712,-7994.224174
660.275226,-5033.400406,-72012.976812,-6069.688724
660.277796,-1036.288319,-71553.319513,7402.059420
660.280366,4293.194464,-76149.892501,5773.606348
660.282874,-32421.020260,-76149.892501,-12435.459826
660.285382,1776.494261,-79520.712692,4885.359217
660.287891,12583.501014,-76303.111601,1036.288319
660.290399,-24574.837274,-70174.347617,-7698.141797
660.292907,3404.947333,-74464.482406,-10214.842000
660.295416,-15988.448347,-75077.358804,-13619.789333
660.297924,-5773.606348,-74924.139704,-12435.459826
660.300432,-5773.606348,-75077.358804,-4293.194464
660.302941,-2812.782580,-73391.948708,1924.535449
660.305449,-9326.594869,-73698.386908,1480.411884
660.307957,-16284.530724,-74004.825107,-3849.070898
660.310466,-11251.130318,-76456.330700,-10362.883188
660.312974,-11991.336260,-76609.549800,-14952.160028
660.315482,4737.318029,-74464.482406,-14952.160028
660.317991,-3108.864956,-70021.128517,5477.523971
660.320499,6365.771101,-71706.538613,7994.224174
660.323007,-12435.459826,-71706.538613,15544.324782
660.325515,17172.777854,-78294.959896,14804.118840
660.328024,-7994.224174,-78907.836294,-296.082377
660.330532,3997.112087,-77222.426198,-1036.288319
660.333040,444.123565,-75690.235202,-6217.729913
660.335549,-7254.018232,-69867.909418,-1332.370696
660.338057,9178.553681,-72012.976812,4145.153275
660.340565,-3701.029710,-72319.415011,6661.853478
660.343074,6661.853478,-77222.426198,9770.718434
660.345582,-6809.894666,-78601.398095,5477.523971
660.348090,-3849.070898,-76915.987999,8586.388927
660.350599,-2072.576638,-74158.044206,-7402.059420
660.353107,-11547.212695,-72472.634111,-6513.812290
660.355615,4145.153275,-71859.757712,5773.606348
660.358124,1480.411884,-74924.139704,148.041188
660.360632,-20281.642811,-74617.701505,-4737.318029
660.363140,7698.141797,-77528.864398,4885.359217
660.365648,-11399.171507,-72472.634111,3701.029710
660.368157,1628.453072,-71400.100414,12435.459826
660.370665,11547.212695,-74924.139704,11843.295072
660.373173,-7105.977043,-75843.454302,3256.906145
660.375682,13323.706956,-79673.931792,3404.947333
660.378190,-7402.059420,-75537.016103,4441.235652
660.380698,9178.553681,-72779.072310,4589.276840
660.383219,-3701.029710,-72932.291410,3849.070898
660.385740,-7994.224174,-73238.729609,-3256.906145
660.388261,12435.459826,-75230.577904,-3404.947333
660.390783,3997.112087,-74158.044206,6513.812290
660.393304,-4885.359217,-76456.330700,6069.688724
660.395825,-21762.054695,-75996.673402,-8142.265362
660.398346,740.205942,-75843.454302,148.041188
660.400867,-20577.725188,-72319.415011,-8438.347739
660.403388,7846.182985,-73085.510509,-6661.853478
660.405909,-14952.160028,-75383.797003,-16432.571912
660.408430,-14359.995275,-74158.044206,-11843.295072
660.410951,-2960.823768,-73851.606007,-4145.153275
660.413472,-14952.160028,-71400.100414,2072.576638
660.415993,3552.988522,-75383.797003,4885.359217
660.418514,-4737.318029,-78754.617194,-4589.276840
660.421035,-27239.578666,-74617.701505,-11103.089130
660.423556,-10807.006753,-73391.948708,-8438.347739
660.426077,-24426.796086,-70480.785816,-9474.636058
660.428598,-10362.883188,-70634.004916,-4589.276840
660.431119,6809.894666,-72012.976812,2812.782580
660.433640,-11251.130318,-74464.482406,740.205942
660.436161,-5329.482782,-79673.931792,-12287.418637
660.438682,-4737.318029,-74924.139704,-14508.036463
660.441203,-7105.977043,-73085.510509,-5921.647536
660.443724,-4737.318029,-72932.291410,-9918.759623
660.446245,-12287.418637,-72779.072310,-8290.306550
660.448766,-1924.535449,-75383.797003,-10955.047942
660.451287,-11547.212695,-74924.139704,-5921.647536
660.453808,-3701.029710,-74770.920605,-1924.535449
660.456330,-8290.306550,-73698.386908,3552.988522
660.458851,-12139.377449,-73545.167808,296.082377
660.461372,-16580.613101,-75077.358804,-11103.089130
660.463893,-11695.253884,-75690.235202,-16284.530724
660.466414,7105.977043,-76303.111601,-14063.912898
660.468935,-12139.377449,-71859.757712,5329.482782
660.471456,12287.418637,-71859.757712,8438.347739
660.473977,-14211.954086,-73391.948708,15692.365970
660.476498,12139.377449,-77375.645298,17172.777854
660.479019,-3404.947333,-79520.712692,2368.659014
660.481540,4293.194464,-77222.426198,-2072.576638
660.484072,-4441.235652,-75537.016103,-7550.100608
660.486603,-740.205942,-70634.004916,-740.205942
660.489135,6661.853478,-71400.100414,4589.276840
660.491666,1184.329507,-71706.538613,11251.130318
660.494198,6957.935855,-78294.959896,10066.800811
660.496730,-2220.617826,-77682.083497,2368.659014
660.499261,1184.329507,-77069.207099,8586.388927
660.501793,-1776.494261,-75843.454302,-2220.617826
660.504324,-4885.359217,-71093.662214,888.247130
660.506856,39082.873738,-75230.577904,16284.530724
660.509388,-46929.056723,-72012.976812,-17912.983796
660.511919,-11399.171507,-76609.549800,-4737.318029
660.514451,36270.091158,-78294.959896,3552.988522
660.516982,-38638.750172,-69408.252119,11251.130318
660.519514,31828.855506,-73391.948708,24130.713709
660.522046,-19837.519246,-71706.538613,5329.482782
660.524577,15100.201217,-78448.178995,3849.070898
660.527109,-7105.977043,-78141.740796,-1776.494261
660.529640,-10066.800811,-75077.358804,2664.741391
660.532172,9918.759623,-74924.139704,3552.988522
660.534704,-15840.407159,-70480.785816,1036.288319
660.537235,16284.530724,-73391.948708,4441.235652
660.539767,-2664.741391,-73085.510509,4885.359217
660.542299,4589.276840,-75843.454302,8438.347739
660.544830,-17468.860231,-78141.740796,-12139.377449
660.547362,-8438.347739,-75537.016103,-6809.894666
660.549893,-15100.201217,-71553.319513,-3404.947333
660.552425,1184.329507,-72472.634111,-5625.565159
660.554957,-15988.448347,-72319.415011,-15988.448347
660.557488,-9622.677246,-75230.577904,-13027.624579
660.560020,-8586.388927,-74464.482406,-9474.636058
660.562551,-12139.377449,-72166.195912,-592.164754
660.565083,5033.400406,-74158.044206,7402.059420
660.567615,-9622.677246,-75843.454302,-1776.494261
660.570146,-9178.553681,-75996.673402,-10214.842000
660.572678,-7550.100608,-73851.606007,-15396.283594
660.575209,-18653.189738,-74004.825107,-4441.235652
660.577741,9918.759623,-72166.195912,-3256.906145
660.580273,-11991.336260,-68488.937521,-7550.100608
660.582804,-11843.295072,-73391.948708,-3256.906145
660.585345,-9030.512492,-77528.864398,-4293.194464
660.587885,-5181.441594,-76609.549800,-5921.647536
660.590426,-7846.182985,-74924.139704,-12731.542202
660.592966,-13619.789333,-70634.004916,-10658.965565
660.595507,5625.565159,-74770.920605,-12583.501014
660.598047,-22058.137072,-72012.976812,-8734.430116
660.600588,8586.388927,-75843.454302,-4737.318029
660.603129,-20725.766376,-74158.044206,2072.576638
660.605669,-6809.894666,-74158.044206,2220.617826
660.608210,-6957.935855,-74464.482406,-4441.235652
660.610750,-19541.436869,-73085.510509,-9770.718434
660.613291,2516.700203,-76915.987999,-17912.983796
660.615831,-740.205942,-72779.072310,-2960.823768
660.618372,-4885.359217,-72932.291410,-2812.782580
660.620912,-296.082377,-70787.224015,16876.695478
660.623453,6809.894666,-75230.577904,16728.654289
660.625993,-10362.883188,-75537.016103,6513.812290
660.628534,10066.800811,-78448.178995,-2516.700203
660.631074,-9918.759623,-75537.016103,-8290.306550
660.633615,2664.741391,-73391.948708,-6217.729913
660.636155,-1184.329507,-70940.443115,-1184.329507
660.638696,5625.565159,-71246.881314,7698.141797
660.641237,8586.388927,-75230.577904,12435.459826
660.643777,1776.494261,-76762.768900,7846.182985
660.646318,-1036.288319,-75690.235202,1628.453072
660.648858,4885.359217,-77528.864398,888.247130
660.651399,2664.741391,-73085.510509,-5773.606348
660.653939,-8438.347739,-69255.033019,3849.070898
660.656480,30644.525999,-74158.044206,7698.141797
660.659020,-25759.166782,-76762.768900,-14508.036463
660.661561,13323.706956,-75996.673402,2220.617826
660.664101,20873.807564,-75690.235202,11251.130318
660.666596,-25759.166782,-68795.375720,12879.583391
660.669091,25167.002028,-74464.482406,17024.736666
660.671586,-13027.624579,-75077.358804,3108.864956
660.674082,9326.594869,-77375.645298,2220.617826
660.676577,-6957.935855,-77528.864398,-4589.276840
660.679072,-3701.029710,-74770.920605,888.247130
660.681567,8586.388927,-74311.263306,2072.576638
660.684062,2960.823768,-70327.566716,3256.906145
660.686557,11843.295072,-72012.976812,14211.954086
660.689052,-14656.077652,-75537.016103,6365.771101
660.691547,-11399.171507,-78294.959896,-10362.883188
660.694042,-2812.782580,-77988.521696,-5033.400406
660.696537,-19541.436869,-72012.976812,-3108.864956
660.699032,8734.430116,-71553.319513,-3108.864956
660.701527,-20133.601622,-72472.634111,-14804.118840
660.704022,-7105.977043,-74924.139704,-8438.347739
660.706517,-8290.306550,-74924.139704,-9030.512492
660.709012,-12583.501014,-71400.100414,592.164754
660.711507,5773.606348,-74617.701505,6069.688724
660.714002,-12731.542202,-74770.920605,-2072.576638
660.716497,-11695.253884,-74770.920605,-8290.306550
660.718992,-11103.089130,-76762.768900,-11251.130318
660.721488,-8142.265362,-73238.729609,-4293.194464
660.723983,6957.935855,-73698.386908,-1184.329507
660.726478,-8586.388927,-70174.347617,6661.853478
660.728973,-7698.141797,-75843.454302,1184.329507
660.731468,-6365.771101,-77682.083497,-6069.688724
660.733963,-5921.647536,-77988.521696,-8290.306550
660.736458,-17172.777854,-72319.415011,-12879.583391
660.738953,-148.041188,-71706.538613,-10510.924376
660.741448,-13175.665768,-72625.853210,-10066.800811
660.743943,-1776.494261,-74004.825107,-6957.935855
660.746438,-12731.542202,-75077.358804,-1776.494261
660.748933,-10955.047942,-75690.235202,-888.247130
660.751428,-16284.530724,-74158.044206,-2368.659014
660.753923,-10955.047942,-73238.729609,-9326.594869
660.756418,-4293.194464,-74924.139704,-15692.365970
660.758913,4885.359217,-73391.948708,-3849.070898
660.761408,-15396.283594,-73391.948708,-1628.453072
660.763903,11251.130318,-73391.948708,12731.542202
660.766416,-5477.523971,-75230.577904,12287.418637
660.768929,3701.029710,-75383.797003,17320.819043
660.771441,6661.853478,-77835.302597,5329.482782
660.773954,-9770.718434,-75537.016103,-5625.565159
660.776467,6217.729913,-75383.797003,-6809.894666
660.778979,-9918.759623,-70940.443115,-5773.606348
660.781492,10955.047942,-72319.415011,6217.729913
660.784005,3701.029710,-74158.044206,10362.883188
660.786517,-3256.906145,-76303.111601,11251.130318
660.789030,-6661.853478,-78754.617194,10658.965565
660.791543,-3108.864956,-77988.521696,-4441.235652
660.794055,-23538.548956,-70327.566716,-16728.654289
660.796568,20577.725188,-71400.100414,17172.777854
660.799080,-28423.908173,-69867.909418,-7254.018232
660.801593,17912.983796,-76609.549800,2960.823768
660.804106,-4737.318029,-81052.903688,-444.123565
660.806618,-7550.100608,-74311.263306,3108.864956
660.809131,30348.443622,-75690.235202,16580.613101
660.811644,-12139.377449,-70940.443115,9030.512492
660.814156,15692.365970,-75230.577904,13323.706956
660.816669,-4885.359217,-78294.959896,-1924.535449
660.819182,-10066.800811,-75077.358804,-3256.906145
660.821694,7698.141797,-78294.959896,-444.123565
660.824207,-14952.160028,-72012.976812,-1036.288319
660.826720,27683.702231,-72625.853210,10214.842000
660.829232,-14804.118840,-71246.881314,11547.212695
660.831745,-5033.400406,-75996.673402,-148.041188
660.834258,-15988.448347,-81512.560987,-11251.130318
660.836770,-7402.059420,-74770.920605,-2516.700203
660.839283,-1924.535449,-74617.701505,-4441.235652
660.841796,-13619.789333,-68488.937521,-5625.565159
660.844308,-148.041188,-74004.825107,-8142.265362
660.846821,-23390.507767,-75077.358804,-13915.871710
660.849333,-148.041188,-74004.825107,-2664.741391
660.851846,-6217.729913,-75537.016103,1036.288319
660.854359,-6809.894666,-73545.167808,3404.947333
660.856871,-6513.812290,-75537.016103,-2220.617826
660.859384,-31088.649564,-72779.072310,-11251.130318
660.861897,-14508.036463,-73545.167808,-12287.418637
660.864409,-13619.789333,-72472.634111,-4885.359217
660.866937,4737.318029,-72779.072310,6957.935855
660.869464,-13323.706956,-72319.415011,-9178.553681
660.871991,-13619.789333,-74158.044206,-9474.636058
660.874519,3997.112087,-77682.083497,-10658.965565
660.877046,-25463.084405,-72932.291410,-15248.242405
660.879573,10066.800811,-73545.167808,-12583.501014
660.882101,-14359.995275,-72166.195912,-7105.977043
660.884628,-1036.288319,-74617.701505,-6809.894666
660.887155,-6513.812290,-74617.701505,-3552.988522
660.889683,-11695.253884,-74311.263306,-444.123565
660.892210,-14804.118840,-76303.111601,-7550.100608
660.894737,-13175.665768,-73545.167808,-8734.430116
660.897265,-2812.782580,-73545.167808,-13767.830521
660.899792,3108.864956,-72932.291410,-5033.400406
660.902319,-10955.047942,-72779.072310,-148.041188
660.904847,-4737.318029,-73391.948708,8438.347739
660.907374,7846.182985,-77375.645298,13471.748144
660.909901,-1924.535449,-74770.920605,13619.789333
660.912429,5477.523971,-75996.673402,4885.359217
660.914956,-3552.988522,-75843.454302,-740.205942
660.917483,-2072.576638,-75383.797003,-6809.894666
660.920011,-3849.070898,-72012.976812,-6513.812290
660.922538,5625.565159,-71706.538613,1184.329507
660.925065,6365.771101,-74617.701505,10658.965565
660.927592,7846.182985,-75996.673402,10658.965565
660.930120,2368.659014,-78601.398095,11695.253884
660.932647,-12139.377449,-75843.454302,-11399.171507
660.935174,-2812.782580,-74770.920605,2368.659014
660.937702,7846.182985,-71859.757712,1480.411884
660.940229,-1036.288319,-70174.347617,1036.288319
660.942756,3849.070898,-77069.207099,-3552.988522
660.945284,7550.100608,-80286.808190,6365.771101
660.947811,6513.812290,-75843.454302,5625.565159
660.950338,1776.494261,-73698.386908,14359.995275
660.952866,10658.965565,-73391.948708,14952.160028
660.955393,-6217.729913,-75077.358804,8882.471304
660.957920,6069.688724,-76609.549800,-444.123565
660.960448,-4589.276840,-76915.987999,-4885.359217
660.962975,-5033.400406,-74924.139704,-6217.729913
660.965502,14063.912898,-74158.044206,4441.235652
660.968042,4885.359217,-70480.785816,15396.283594
660.970581,-4293.194464,-73545.167808,15544.324782
660.973121,-24278.754898,-76149.892501,-9030.512492
660.975660,888.247130,-79980.369991,-9474.636058
660.978199,-22798.343014,-74617.701505,-10066.800811
660.980738,3256.906145,-71400.100414,-5625.565159
660.983278,-13027.624579,-70787.224015,-10362.883188
660.985817,-15544.324782,-72319.415011,-7550.100608
660.988356,-5181.441594,-75996.673402,-5921.647536
660.990896,-16432.571912,-74924.139704,-1332.370696
660.993435,8882.471304,-76456.330700,2220.617826
660.995974,-19689.478057,-74004.825107,-740.205942
660.998514,-2812.782580,-73545.167808,-7994.224174
661.001053,-6809.894666,-76915.987999,-6957.935855
661.003592,-2812.782580,-75077.358804,-9030.512492
661.006131,-3404.947333,-74158.044206,-9474.636058
661.008671,-11547.212695,-70480.785816,-7550.100608
661.011210,-12879.583391,-73085.510509,-4737.318029
661.013749,-11843.295072,-77988.521696,-2072.576638
661.016289,-19985.560434,-74770.920605,-10362.883188
661.018828,-11399.171507,-72012.976812,-11103.089130
661.021367,-5773.606348,-72166.195912,-14656.077652
661.023906,-5773.606348,-73545.167808,-8734.430116
661.026446,-7105.977043,-74770.920605,-2812.782580
661.028985,-15100.201217,-74004.825107,2072.576638
661.031524,-12731.542202,-75230.577904,-5033.400406
661.034064,-15840.407159,-74617.701505,-7994.224174
661.036603,-4885.359217,-74004.825107,-11843.295072
661.039142,5181.441594,-73238.729609,-1776.494261
661.041682,-11547.212695,-72012.976812,-2516.700203
661.044221,2072.576638,-74464.482406,9770.718434
661.046760,1184.329507,-77069.207099,9918.759623
661.049299,-0.000000,-75690.235202,15248.242405
661.051839,7846.182985,-76609.549800,4885.359217
661.054378,-7550.100608,-75230.577904,-3404.947333
661.056917,3552.988522,-74311.263306,-4589.276840
661.059457,-7994.224174,-72319.415011,-6661.853478
661.061996,6957.935855,-72166.195912,3404.947333
661.064535,13027.624579,-75230.577904,8438.347739
661.067074,-3552.988522,-74004.825107,10807.006753
661.069576,3849.070898,-76609.549800,6069.688724
661.072077,-3256.906145,-79673.931792,-12435.459826
661.074579,-12583.501014,-72779.072310,-6069.688724
661.077080,15840.407159,-71553.319513,3997.112087
661.079582,-17764.942608,-70327.566716,-592.164754
661.082083,10362.883188,-78294.959896,11695.253884
661.084584,-592.164754,-78754.617194,-148.041188
661.087086,1036.288319,-75996.673402,6809.894666
661.089587,8142.265362,-75690.235202,13027.624579
661.092089,-8142.265362,-72472.634111,11843.295072
661.094590,10658.965565,-76456.330700,5329.482782
661.097091,-9474.636058,-74617.701505,-2072.576638
661.099593,592.164754,-75843.454302,-10066.800811
661.102094,-1480.411884,-75537.016103,-6365.771101
661.104596,14656.077652,-72319.415011,10955.047942
661.107097,-3256.906145,-71706.538613,16284.530724
661.109598,-19097.313304,-74617.701505,-296.082377
661.112100,-7994.224174,-78294.959896,-9918.759623
661.114601,-17616.901420,-75537.016103,-7994.224174
661.117103,6513.812290,-75077.358804,-13175.665768
661.119604,-17764.942608,-70940.443115,-10214.842000
661.122105,740.205942,-71859.757712,-7698.141797
661.124607,-20873.807564,-72166.195912,-7994.224174
661.127108,-3849.070898,-74004.825107,-296.082377
661.129610,-0.000000,-77835.302597,1036.288319
661.132111,-11843.295072,-74770.920605,444.123565
661.134612,-6957.935855,-75230.577904,-3701.029710
661.137114,-21465.972318,-71093.662214,-14804.118840
661.139615,-8882.471304,-73698.386908,-17172.777854
661.142117,-13323.706956,-71859.757712,-1036.288319
661.144618,18357.107362,-75537.016103,-5181.441594
661.147120,-44116.274143,-71400.100414,-9326.594869
661.149621,12731.542202,-76149.892501,-7402.059420
661.152122,-13915.871710,-74617.701505,-21614.013506
661.154624,-36270.091158,-69714.690318,-13175.665768
661.157125,25611.125593,-74158.044206,-12435.459826
661.159627,-38786.791361,-69867.909418,-7698.141797
661.162128,22206.178260,-77375.645298,592.164754
661.164629,-34197.514520,-72012.976812,-3256.906145
661.167131,-22650.301825,-74311.263306,-3108.864956
661.169650,1036.288319,-75843.454302,-7698.141797
661.172170,-17912.983796,-72166.195912,-10066.800811
661.174689,19541.436869,-73545.167808,1628.453072
661.177208,-20725.766376,-72012.976812,-5625.565159
661.179728,7846.182985,-74770.920605,9030.512492
661.182247,148.041188,-77835.302597,7402.059420
661.184767,-13915.871710,-74770.920605,9474.636058
661.187286,14804.118840,-76456.330700,4737.318029
661.189805,-9474.636058,-74158.044206,-3256.906145
661.192325,4441.235652,-74617.701505,-2072.576638
661.194844,-2516.700203,-72932.291410,-4589.276840
661.197364,6513.812290,-72625.853210,3108.864956
661.199883,1332.370696,-75843.454302,6809.894666
661.202402,1924.535449,-76609.549800,12879.583391
661.204922,3997.112087,-77375.645298,14359.995275
661.207441,888.247130,-76915.987999,-3849.070898
661.209961,-17616.901420,-72166.195912,-8142.265362
661.212480,14508.036463,-72012.976812,14952.160028
661.214999,1184.329507,-72779.072310,4737.318029
661.217519,-16728.654289,-74617.701505,3404.947333
661.220038,20577.725188,-78601.398095,7254.018232
661.222558,-8142.265362,-75077.358804,5181.441594
661.225077,7994.224174,-74004.825107,17616.901420
661.227596,2072.576638,-74464.482406,11103.089130
661.230116,-6365.771101,-73851.606007,3108.864956
661.232635,5181.441594,-77375.645298,-2812.782580
661.235155,-12731.542202,-74617.701505,-10807.006753
661.237674,23686.590144,-75843.454302,3256.906145
661.240193,-3997.112087,-71859.757712,13619.789333
661.242713,-8290.306550,-72166.195912,13175.665768
661.245232,-21021.848753,-77835.302597,-6069.688724
661.247752,-3108.864956,-76303.111601,444.123565
661.250271,-10807.006753,-75690.235202,-13915.871710
661.252790,-6069.688724,-71553.319513,-12731.542202
661.255310,-2220.617826,-72779.072310,-10807.006753
661.257829,-20281.642811,-71400.100414,-9030.512492
661.260349,-2072.576638,-73238.729609,-2368.659014
661.262868,-13323.706956,-75077.358804,1036.288319
661.265387,2664.741391,-77528.864398,2368.659014
661.267907,-5033.400406,-75690.235202,-8142.265362
661.270441,-10955.047942,-74464.482406,-2664.741391
661.272975,-17320.819043,-72625.853210,-10807.006753
661.275510,-8290.306550,-72779.072310,-8586.388927
661.278044,6365.771101,-72779.072310,3997.112087
661.280578,-13915.871710,-73698.386908,-9918.759623
661.283113,-7402.059420,-76915.987999,-10066.800811
661.285647,-9326.594869,-76456.330700,-12731.542202
661.288181,-19689.478057,-71859.757712,-14211.954086
661.290715,2516.700203,-72779.072310,-8882.471304
661.293250,-10510.924376,-71859.757712,-8290.306550
661.295784,2812.782580,-75230.577904,-4737.318029
661.298318,-13767.830521,-75537.016103,-6957.935855
661.300853,-18949.272115,-75077.358804,-4737.318029
661.303387,-8882.471304,-75537.016103,-6809.894666
661.305921,-2368.659014,-72932.291410,-9770.718434
661.308455,6217.729913,-71400.100414,3701.029710
661.310990,-5773.606348,-73698.386908,-3108.864956
661.313524,-3849.070898,-73698.386908,6957.935855
661.316058,19985.560434,-78907.836294,13767.830521
661.318593,-11547.212695,-74770.920605,6661.853478
661.321127,11547.212695,-75077.358804,6217.729913
661.323661,-9178.553681,-74617.701505,-2812.782580
661.326195,2368.659014,-73085.510509,-2368.659014
661.328730,888.247130,-73545.167808,-3997.112087
661.331264,2516.700203,-72625.853210,4589.276840
661.333798,19837.519246,-77069.207099,9622.677246
661.336333,-8734.430116,-76762.768900,15396.283594
661.338867,-3849.070898,-76609.549800,13471.748144
661.341401,10214.842000,-79061.055394,5477.523971
661.343936,-3701.029710,-75230.577904,-3997.112087
661.346470,-14508.036463,-70480.785816,148.041188
661.349004,21614.013506,-73545.167808,13175.665768
661.351538,-21614.013506,-74617.701505,6365.771101
661.354073,-3108.864956,-75996.673402,7254.018232
661.356607,20873.807564,-77682.083497,12287.418637
661.359141,-13471.748144,-72166.195912,6069.688724
661.361676,19837.519246,-76303.111601,8290.306550
661.364210,-14211.954086,-74311.263306,-3849.070898
661.366744,6217.729913,-75537.016103,-6809.894666
661.369278,740.205942,-75230.577904,-8438.347739
661.371824,-3552.988522,-71706.538613,10066.800811
661.374369,7550.100608,-73545.167808,17468.860231
661.376914,-30644.525999,-74004.825107,-4737.318029
661.379459,5329.482782,-76609.549800,1332.370696
661.382004,-24722.878463,-75383.797003,-8586.388927
661.384550,3552.988522,-74004.825107,-13323.706956
661.387095,-12879.583391,-74464.482406,-14804.118840
661.389640,-9770.718434,-72166.195912,-7550.100608
661.392185,-1776.494261,-72166.195912,-4885.359217
661.394730,-17320.819043,-72932.291410,2664.741391
661.397276,6513.812290,-76915.987999,3108.864956
661.399821,-23834.631332,-77528.864398,-444.123565
661.402366,-296.082377,-75996.673402,-5477.523971
661.404911,-18653.189738,-72625.853210,-5625.565159
661.407456,1184.329507,-74464.482406,-9622.677246
661.410002,-740.205942,-72472.634111,2664.741391
661.412547,-11547.212695,-71706.538613,-8586.388927
661.415092,-7994.224174,-78294.959896,-3404.947333
661.417637,-5773.606348,-77682.083497,-12731.542202
661.420182,-14804.118840,-74464.482406,-12435.459826
661.422728,3701.029710,-72779.072310,-11843.295072
661.425273,-11843.295072,-72012.976812,-7254.018232
661.427818,296.082377,-74770.920605,-5329.482782
661.430363,-21910.095883,-74770.920605,-11399.171507
661.432908,-9622.677246,-75843.454302,-4441.235652
661.435453,-16728.654289,-75690.235202,-7550.100608
661.437999,4589.276840,-73085.510509,-5477.523971
661.440544,-1924.535449,-70480.785816,3849.070898
661.443089,592.164754,-72472.634111,-1184.329507
661.445634,-6217.729913,-74311.263306,4737.318029
661.448179,17024.736666,-78294.959896,12435.459826
661.450725,-6809.894666,-75537.016103,6513.812290
661.453270,9326.594869,-75077.358804,4293.194464
661.455815,-7994.224174,-74004.825107,-592.164754
661.458360,1776.494261,-72779.072310,-444.123565
661.460905,2664.741391,-73545.167808,-3849.070898
661.463451,592.164754,-73545.167808,5625.565159
661.465996,17764.942608,-75077.358804,6661.853478
661.468541,-4737.318029,-73085.510509,3552.988522
661.471086,-15692.365970,-73545.167808,148.041188
661.473640,-11547.212695,-75537.016103,-1628.453072
661.476195,18209.066173,-73391.948708,1628.453072
661.478749,-13767.830521,-70634.004916,-4145.153275
661.481303,5773.606348,-69867.909418,2072.576638
661.483857,3701.029710,-75383.797003,6217.729913
661.486411,-9178.553681,-76149.892501,8882.471304
661.488965,10658.965565,-76149.892501,16284.530724
661.491520,-1480.411884,-74617.701505,11103.089130
661.494074,-1184.329507,-74464.482406,4885.359217
661.496628,1036.288319,-75230.577904,-3997.112087
661.499182,-8438.347739,-74004.825107,-8586.388927
661.501736,18209.066173,-75537.016103,6957.935855
661.504290,-3997.112087,-73085.510509,11991.336260
661.506845,-12139.377449,-73391.948708,8586.388927
661.509399,-12879.583391,-77375.645298,-3701.029710
661.511953,-9030.512492,-74770.920605,3404.947333
661.514507,-888.247130,-76609.549800,-10214.842000
661.517061,-11991.336260,-73085.510509,-14508.036463
661.519615,1776.494261,-75843.454302,-10955.047942
661.522170,-22206.178260,-72625.853210,-11399.171507
661.524724,-7254.018232,-71400.100414,-1184.329507
661.527278,-5181.441594,-74924.139704,2960.823768
661.529832,-3108.864956,-75690.235202,2664.741391
661.532386,-1776.494261,-75230.577904,-8734.430116
661.534941,-16136.489536,-75383.797003,-3404.947333
661.537495,-1184.329507,-74464.482406,-18801.230927
661.540049,-15840.407159,-71246.881314,-4737.318029
661.542603,-1628.453072,-71706.538613,-3256.906145
661.545157,-14508.036463,-75230.577904,-2368.659014
661.547711,-20281.642811,-77069.207099,-8438.347739
661.550266,-13767.830521,-75690.235202,-10066.800811
661.552820,-6661.853478,-72166.195912,-13175.665768
661.555374,-9474.636058,-71400.100414,-7550.100608
661.557928,-2664.741391,-72472.634111,-3108.864956
661.560482,-15988.448347,-75383.797003,-8734.430116
661.563036,-9918.759623,-75230.577904,-6661.853478
661.565591,-16876.695478,-76456.330700,-7254.018232
661.568145,5921.647536,-74158.044206,-6661.853478
661.570699,-3404.947333,-70327.566716,7254.018232
661.573253,5921.647536,-72166.195912,-888.247130
661.575814,-11251.130318,-73698.386908,4293.194464
661.578376,17764.942608,-79980.369991,8290.306550
661.580937,-6365.771101,-76456.330700,3108.864956
661.583499,3256.906145,-74617.701505,3256.906145
661.586060,-1628.453072,-74004.825107,444.123565
661.588621,-4293.194464,-71553.319513,-592.164754
661.591183,5181.441594,-73085.510509,-4737.318029
661.593744,296.082377,-73545.167808,3849.070898
661.596306,3552.988522,-75690.235202,6365.771101
661.598867,7105.977043,-76456.330700,7698.141797
661.601428,2664.741391,-77835.302597,2812.782580
661.603990,-16580.613101,-75843.454302,-5625.565159
661.606551,15100.201217,-75383.797003,9918.759623
661.609113,8142.265362,-74158.044206,6513.812290
661.611674,-4441.235652,-72319.415011,7402.059420
661.614235,23686.590144,-78754.617194,9474.636058
661.616797,-15544.324782,-74924.139704,13027.624579
661.619358,14063.912898,-76149.892501,11547.212695
661.621920,-9918.759623,-74617.701505,8290.306550
661.624481,5625.565159,-74158.044206,2516.700203
661.627042,-8142.265362,-74770.920605,-9770.718434
661.629604,5625.565159,-75230.577904,-3849.070898
661.632165,6809.894666,-73545.167808,6513.812290
661.634727,-4737.318029,-73238.729609,14804.118840
661.637288,-9770.718434,-75843.454302,-3108.864956
661.639849,-8734.430116,-76303.111601,-1776.494261
661.642411,-13175.665768,-74158.044206,-3997.112087
661.644972,4293.194464,-74464.482406,-11251.130318
661.647534,-18209.066173,-73545.167808,-14656.077652
661.650095,-740.205942,-75077.358804,-9918.759623
661.652656,-19393.395680,-72779.072310,-9326.594869
661.655218,-5773.606348,-72319.415011,148.041188
661.657779,1184.329507,-75996.673402,3256.906145
661.660341,-19393.395680,-76762.768900,1776.494261
661.662902,2812.782580,-74770.920605,-14063.912898
661.665463,-30644.525999,-73698.386908,-17616.901420
661.668025,-4885.359217,-73698.386908,-5773.606348
661.670586,3108.864956,-71400.100414,1184.329507
661.673148,-13915.871710,-74464.482406,740.205942
661.675709,-6513.812290,-78601.398095,-7846.182985
661.678234,-10807.006753,-77528.864398,-11695.253884
661.680759,-12583.501014,-74311.263306,-13915.871710
661.683284,-1332.370696,-71246.881314,-5625.565159
661.685808,-5921.647536,-72625.853210,-2812.782580
661.688333,-15248.242405,-74311.263306,-2812.782580
661.690858,-6957.935855,-75690.235202,-12287.418637
661.693383,-23538.548956,-75230.577904,-10510.924376
661.695908,4441.235652,-75843.454302,-7550.100608
661.698433,-148.041188,-70940.443115,7550.100608
661.700957,-2220.617826,-70480.785816,-1776.494261
661.703482,-4589.276840,-73545.167808,7846.182985
661.706007,6069.688724,-77682.083497,6513.812290
661.708532,-3849.070898,-76762.768900,4293.194464
661.711057,6069.688724,-76303.111601,1480.411884
661.713582,-3849.070898,-74770.920605,1776.494261
661.716107,444.123565,-72625.853210,-0.000000
661.718631,-740.205942,-72625.853210,-3256.906145
661.721156,-2516.700203,-72166.195912,2072.576638
661.723681,5477.523971,-77682.083497,9622.677246
661.726206,3701.029710,-74617.701505,3404.947333
661.728731,-1480.411884,-76303.111601,2368.659014
661.731256,-16876.695478,-74617.701505,-9178.553681
661.733780,4589.276840,-74464.482406,10214.842000
661.736305,19245.354492,-73238.729609,5181.441594
661.738830,-4145.153275,-72472.634111,9770.718434
661.741355,21021.848753,-77988.521696,12879.583391
661.743880,-15840.407159,-75077.358804,12879.583391
661.746405,20133.601622,-78448.178995,15100.201217
661.748930,-14508.036463,-73698.386908,8290.306550
661.751454,1480.411884,-74311.263306,4441.235652
661.753979,-1332.370696,-76456.330700,-10066.800811
661.756504,9622.677246,-73698.386908,-888.247130
661.759029,4885.359217,-73085.510509,10955.047942
661.761554,-10807.006753,-72932.291410,11547.212695
661.764079,-14063.912898,-75843.454302,-2960.823768
661.766603,-3701.029710,-76762.768900,-296.082377
661.769128,-14656.077652,-72932.291410,-8438.347739
661.771653,888.247130,-73545.167808,-11695.253884
661.774178,-15248.242405,-73391.948708,-17024.736666
661.776703,-12879.583391,-74004.825107,-11843.295072
661.779241,-7846.182985,-73545.167808,-7254.018232
661.781780,-9030.512492,-72625.853210,2960.823768
661.784318,7698.141797,-75230.577904,3256.906145
661.786856,-16432.571912,-77682.083497,740.205942
661.789395,-17320.819043,-73391.948708,-9326.594869
661.791933,9770.718434,-76915.987999,7550.100608
661.794472,-23242.466579,-72472.634111,-27535.661042
661.797010,-24130.713709,-69101.813920,7550.100608
661.799549,32717.102636,-75996.673402,4589.276840
661.802087,-68691.111418,-71859.757712,-11547.212695
661.804625,34641.638086,-80746.465489,-3701.029710
661.807164,-4589.276840,-74464.482406,-13915.871710
661.809702,-27683.702231,-69101.813920,-8290.306550
661.812241,21465.972318,-74924.139704,-1628.453072
661.814779,-41747.615129,-72166.195912,-7550.100608
661.817317,9178.553681,-78601.398095,-10658.965565
661.819856,-23094.425390,-74004.825107,-14063.912898
661.822394,11103.089130,-74770.920605,740.205942
661.824933,-888.247130,-71859.757712,-0.000000
661.827471,-3701.029710,-70940.443115,12139.377449
661.830009,9622.677246,-77375.645298,7105.977043
661.832548,-8290.306550,-75230.577904,6069.688724
661.835086,12731.542202,-77988.521696,2960.823768
661.837625,-9178.553681,-74617.701505,-2072.576638
661.840163,1628.453072,-73238.729609,148.041188
661.842701,3256.906145,-72472.634111,592.164754
661.845240,-444.123565,-72166.195912,2960.823768
661.847778,6809.894666,-76456.330700,7994.224174
661.850317,-444.123565,-75843.454302,1480.411884
661.852855,7698.141797,-76303.111601,4293.194464
661.855394,-19541.436869,-74464.482406,-7698.141797
661.857932,19985.560434,-75690.235202,-3108.864956
661.860481,-12435.459826,-71553.319513,-6957.935855
661.863031,-4589.276840,-72319.415011,10362.883188
661.865580,22058.137072,-76456.330700,11103.089130
661.868129,-18801.230927,-76149.892501,12879.583391
661.870679,18505.148550,-77988.521696,12879.583391
661.873228,-14508.036463,-74464.482406,6069.688724
661.875777,9918.759623,-75537.016103,6513.812290
661.878327,-3997.112087,-74924.139704,-6513.812290
661.880876,3256.906145,-73851.606007,-296.082377
661.883425,6513.812290,-74158.044206,12435.459826
661.885975,-15248.242405,-73545.167808,9770.718434
661.888524,-15396.283594,-75537.016103,-3108.864956
661.891074,-1924.535449,-75996.673402,3849.070898
661.893623,-15100.201217,-72932.291410,-6513.812290
661.896172,1628.453072,-73545.167808,-11103.089130
661.898722,-13323.706956,-73698.386908,-16728.654289
661.901271,-19245.354492,-73545.167808,-13915.871710
661.903820,-5477.523971,-74464.482406,-3701.029710
661.906370,-11991.336260,-72932.291410,3404.947333
661.908919,5773.606348,-75996.673402,5625.565159
661.911468,-4589.276840,-77375.645298,2072.576638
661.914018,-20281.642811,-75537.016103,-12287.418637
661.916567,-17764.942608,-73391.948708,-3849.070898
661.919116,2220.617826,-71859.757712,-17468.860231
661.921666,-34789.679274,-69408.252119,-5625.565159
661.924215,17468.860231,-74770.920605,-1776.494261
661.926764,-25315.043216,-75843.454302,-17616.901420
661.929314,-3997.112087,-75843.454302,-13027.624579
661.931863,2368.659014,-74617.701505,-13915.871710
661.934412,-22502.260637,-69561.471218,-5329.482782
661.936962,3256.906145,-74004.825107,-6365.771101
661.939511,-25759.166782,-73698.386908,-7550.100608
661.942061,-2368.659014,-76456.330700,-13175.665768
661.944610,-2960.823768,-75996.673402,-7846.182985
661.947159,-3997.112087,-72166.195912,8438.347739
661.949709,4589.276840,-73238.729609,2664.741391
661.952258,-12879.583391,-70787.224015,8734.430116
661.954807,20725.766376,-77988.521696,10066.800811
661.957357,-10214.842000,-76915.987999,2664.741391
661.959906,9770.718434,-77069.207099,-0.000000
661.962462,-4589.276840,-75843.454302,-740.205942
661.965019,-3552.988522,-71246.881314,740.205942
661.967577,6069.688724,-71859.757712,3108.864956
661.970135,-4441.235652,-73238.729609,4145.153275
661.972692,6365.771101,-77528.864398,9622.677246
661.975250,-3108.864956,-77528.864398,296.082377
661.977807,-16284.530724,-74004.825107,296.082377
661.980365,7994.224174,-75537.016103,-3108.864956
661.982922,-19393.395680,-71246.881314,3849.070898
661.985480,19837.519246,-73238.729609,8734.430116
661.988038,-3849.070898,-72625.853210,3849.070898
661.990595,14063.912898,-76456.330700,13471.748144
661.993153,-6809.894666,-77222.426198,9770.718434
661.995710,-5181.441594,-74158.044206,7402.059420
661.998268,5625.565159,-74770.920605,4737.318029
662.000826,-5181.441594,-74158.044206,-3849.070898
662.003383,14063.912898,-76303.111601,-5329.482782
662.005941,1184.329507,-73085.510509,3849.070898
662.008498,-3108.864956,-73698.386908,12435.459826
662.011056,-20725.766376,-75843.454302,-5477.523971
662.013614,-3849.070898,-75077.358804,740.205942
662.016171,-11251.130318,-73238.729609,-3997.112087
662.018729,-1036.288319,-72625.853210,-9918.759623
662.021286,-12139.377449,-73698.386908,-13767.830521
662.023844,-13915.871710,-74924.139704,-12287.418637
662.026402,-15544.324782,-73545.167808,-10066.800811
662.028959,-11399.171507,-71859.757712,-148.041188
662.031517,-0.000000,-74158.044206,6809.894666
662.034074,-1776.494261,-73698.386908,-2664.741391
662.036632,-2960.823768,-75690.235202,-10510.924376
662.039190,-29904.320057,-73238.729609,-18653.189738
662.041747,-22650.301825,-72472.634111,-7550.100608
662.044305,-148.041188,-71553.319513,6661.853478
662.046862,-24574.837274,-72012.976812,-4145.153275
662.049420,-3849.070898,-76149.892501,-11991.336260
662.051978,-2516.700203,-77222.426198,-16136.489536
662.054535,-15248.242405,-72932.291410,-10214.842000
662.057093,296.082377,-72319.415011,-5477.523971
662.059650,-21762.054695,-71553.319513,-1924.535449
662.062208,-3997.112087,-75383.797003,-7105.977043
662.064773,-14359.995275,-76149.892501,-10955.047942
662.067337,3256.906145,-76762.768900,-11695.253884
662.069902,-13471.748144,-71553.319513,8438.347739
662.072467,15692.365970,-72625.853210,7994.224174
662.075031,-15100.201217,-73238.729609,7994.224174
662.077596,22650.301825,-77069.207099,12879.583391
662.080160,-9326.594869,-76762.768900,4737.318029
662.082725,8438.347739,-77069.207099,-2220.617826
662.085290,-5625.565159,-76303.111601,-1036.288319
662.087854,-296.082377,-71246.881314,592.164754
662.090419,2368.659014,-71246.881314,2368.659014
662.092984,5921.647536,-75077.358804,8290.306550
662.095548,10807.006753,-78754.617194,10214.842000
662.098113,5329.482782,-76915.987999,8734.430116
662.100677,-8586.388927,-76149.892501,-5329.482782
662.103242,-9178.553681,-75077.358804,-3256.906145
662.105807,2072.576638,-70634.004916,3849.070898
662.108371,5477.523971,-71706.538613,8290.306550
662.110936,444.123565,-74311.263306,11843.295072
662.113501,4441.235652,-77069.207099,10214.842000
662.116065,-9326.594869,-76149.892501,5033.400406
662.118630,1332.370696,-74617.701505,5329.482782
662.121194,-4293.194464,-73545.167808,2368.659014
662.123759,5773.606348,-73545.167808,-2960.823768
662.126324,9030.512492,-73698.386908,-0.000000
662.128888,-4737.318029,-73698.386908,8734.430116
662.131453,-18357.107362,-75230.577904,592.164754
662.134018,-12879.583391,-77835.302597,-2812.782580
662.136582,-9474.636058,-73085.510509,2812.782580
662.139147,-148.041188,-73545.167808,-6513.812290
662.141711,-12731.542202,-71859.757712,-12435.459826
662.144276,-2220.617826,-76762.768900,-12435.459826
662.146841,-18949.272115,-74924.139704,-13619.789333
662.149405,-14211.954086,-72472.634111,-5033.400406
662.151970,740.205942,-73545.167808,7846.182985
662.154535,-16728.654289,-75383.797003,4293.194464
662.157099,3552.988522,-75230.577904,-8734.430116
662.159664,-26795.455100,-75077.358804,-11399.171507
662.162228,-3108.864956,-75996.673402,-6069.688724
662.164793,-10807.006753,-74617.701505,-10510.924376
662.167364,-28127.825796,-69101.813920,-4441.235652
662.169934,14952.160028,-77069.207099,-9918.759623
662.172504,-30792.567187,-75996.673402,-14359.995275
662.175075,-296.082377,-75996.673402,-10362.883188
662.177645,-7550.100608,-72166.195912,-11251.130318
662.180216,-20133.601622,-69867.909418,-2072.576638
662.182786,444.123565,-75077.358804,-7846.182985
662.185357,-22206.178260,-74464.482406,-11843.295072
662.187927,8882.471304,-77528.864398,-9918.759623
662.190498,-3997.112087,-74311.263306,11103.089130
662.193068,148.041188,-72779.072310,1184.329507
662.195638,-5625.565159,-71400.100414,9622.677246
662.198209,16136.489536,-76303.111601,12435.459826
662.200779,-8290.306550,-75690.235202,5477.523971
662.203350,7402.059420,-77222.426198,-592.164754
662.205920,-3404.947333,-75996.673402,-1332.370696
662.208491,-592.164754,-71859.757712,-888.247130
662.211061,3108.864956,-72166.195912,5181.441594
662.213632,9770.718434,-74004.825107,8290.306550
662.216202,3404.947333,-78448.178995,10362.883188
662.218773,-6217.729913,-77528.864398,13027.624579
662.221343,18505.148550,-79367.493593,6957.935855
662.223913,-28127.825796,-72932.291410,-4885.359217
662.226484,18653.189738,-70787.224015,8734.430116
662.229054,3108.864956,-71093.662214,2220.617826
662.231625,3404.947333,-73851.606007,13915.871710
662.234195,11991.336260,-78601.398095,7698.141797
662.236766,-18949.272115,-75077.358804,7994.224174
662.239336,25907.207970,-78141.740796,9770.718434
662.241907,-14656.077652,-72625.853210,-5033.400406
662.244477,9918.759623,-73391.948708,-5033.400406
662.247047,7105.977043,-73851.606007,2516.700203
662.249618,-4293.194464,-73545.167808,6365.771101
662.252188,-14063.912898,-76915.987999,-4293.194464
662.254759,-15988.448347,-76456.330700,-7698.141797
662.257329,-6809.894666,-73085.510509,2664.741391
662.259900,2368.659014,-72166.195912,-7698.141797
662.262470,-16728.654289,-72472.634111,-10362.883188
662.265041,-3404.947333,-75230.577904,-12435.459826
662.267611,-15396.283594,-75690.235202,-16728.654289
662.270185,-12139.377449,-73851.606007,-2960.823768
662.272760,-3701.029710,-73698.386908,4293.194464
662.275334,-15100.201217,-72319.415011,3256.906145
662.277908,-4737.318029,-75537.016103,2664.741391
662.280483,1184.329507,-77222.426198,-4885.359217
662.283057,-12287.418637,-74004.825107,-6513.812290
662.285631,2664.741391,-74311.263306,6069.688724
662.288206,-21021.848753,-70787.224015,-10510.924376
662.290780,-9178.553681,-75537.016103,-9474.636058
662.293354,-12879.583391,-76915.987999,-15248.242405
662.295929,-16728.654289,-73545.167808,-11399.171507
662.298503,6957.935855,-73545.167808,-444.123565
662.301077,-21465.972318,-72166.195912,-7402.059420
662.303652,-14804.118840,-74311.263306,-10362.883188
662.306226,-5329.482782,-75843.454302,-13619.789333
662.308800,2368.659014,-75077.358804,1184.329507
662.311375,-5181.441594,-74311.263306,5329.482782
662.313949,3849.070898,-72319.415011,7105.977043
662.316523,4145.153275,-74770.920605,11991.336260
662.319098,-2960.823768,-75383.797003,7994.224174
662.321672,5477.523971,-77528.864398,2960.823768
662.324246,-2368.659014,-77528.864398,-3701.029710
662.326821,-1924.535449,-74311.263306,-2960.823768
662.329395,6069.688724,-72012.976812,2664.741391
662.331969,-1628.453072,-70021.128517,5033.400406
662.334544,8142.265362,-72932.291410,7105.977043
662.337118,-444.123565,-78141.740796,4145.153275
662.339692,4145.153275,-77682.083497,12731.542202
662.342267,15988.448347,-77988.521696,-5625.565159
662.344841,-15692.365970,-71706.538613,-3108.864956
662.347415,30792.567187,-72625.853210,8734.430116
662.349990,-14656.077652,-71553.319513,10955.047942
662.352564,17024.736666,-76915.987999,10955.047942
662.355138,740.205942,-78754.617194,4441.235652
662.357713,-6365.771101,-74464.482406,4145.153275
662.360287,10510.924376,-75537.016103,148.041188
662.362861,-8586.388927,-72166.195912,-5477.523971
662.365436,16728.654289,-73085.510509,5921.647536
662.368010,-10510.924376,-72779.072310,6809.894666
662.370584,-9178.553681,-75996.673402,-3849.070898
662.373162,-9770.718434,-78141.740796,-5477.523971
662.375739,-13619.789333,-73238.729609,-1480.411884
662.378317,-1628.453072,-71859.757712,-6069.688724
662.380894,-14211.954086,-71400.100414,-11103.089130
662.383471,-1776.494261,-75230.577904,-11251.130318
662.386049,-21465.972318,-75843.454302,-17616.901420
662.388626,-7254.018232,-73698.386908,-8438.347739
662.391204,-8290.306550,-73851.606007,2368.659014
662.393781,-11991.336260,-73698.386908,3108.864956
662.396359,-8586.388927,-75690.235202,-7105.977043
662.398936,-22502.260637,-73085.510509,-2664.741391
662.401513,17764.942608,-78448.178995,-11399.171507
662.404091,-49593.798114,-69714.690318,-10214.842000
662.406668,33753.390955,-72932.291410,-148.041188
662.409246,-38786.791361,-73391.948708,-14804.118840
662.411823,-740.205942,-74004.825107,-15100.201217
662.414401,24426.796086,-77988.521696,-12139.377449
662.416978,-42191.738694,-70634.004916,-6957.935855
662.419555,14063.912898,-74924.139704,-3552.988522
662.422133,-30792.567187,-72319.415011,-7698.141797
662.424710,2368.659014,-75843.454302,-10955.047942
662.427288,8586.388927,-75230.577904,2664.741391
662.429865,-17320.819043,-73391.948708,740.205942
662.432443,4589.276840,-74004.825107,10658.965565
662.435020,3849.070898,-75077.358804,11103.089130
662.437597,-2368.659014,-73545.167808,9622.677246
662.440175,6513.812290,-77222.426198,444.123565
662.442752,-2516.700203,-75843.454302,-3404.947333
662.445330,-1776.494261,-75996.673402,-4145.153275
662.447907,5773.606348,-72472.634111,3404.947333
662.450485,2960.823768,-72625.853210,9474.636058
662.453062,9474.636058,-76456.330700,10807.006753
662.455639,17024.736666,-78754.617194,6809.894666
662.458217,-25759.166782,-77222.426198,-5477.523971
662.460794,27387.619854,-76303.111601,-4589.276840
662.463372,-25611.125593,-71553.319513,444.123565
662.465949,15840.407159,-69561.471218,8586.388927
662.468527,-9178.553681,-73238.729609,4885.359217
662.471104,-14656.077652,-76456.330700,10066.800811
662.473681,19393.395680,-79520.712692,6069.688724
662.476223,-20725.766376,-74464.482406,2812.782580
662.478765,15396.283594,-74770.920605,2368.659014
662.481306,2960.823768,-72779.072310,-1480.411884
662.483848,8290.306550,-72319.415011,6365.771101
662.486389,-3997.112087,-74617.701505,6365.771101
662.488931,-30792.567187,-76762.768900,-11547.212695
662.491473,8438.347739,-77835.302597,3256.906145
662.494014,-19985.560434,-72625.853210,-5921.647536
662.496556,2812.782580,-71093.662214,-4145.153275
662.499097,-12731.542202,-73545.167808,-9918.759623
662.501639,-15544.324782,-74464.482406,-13619.789333
662.504181,-8882.471304,-76915.987999,-14508.036463
662.506722,-17024.736666,-74004.825107,-1480.411884
662.509264,-7254.018232,-73698.386908,7402.059420
662.511805,-7402.059420,-74158.044206,-3256.906145
662.514347,-23390.507767,-74004.825107,-3997.112087
662.516889,3108.864956,-77682.083497,-4737.318029
662.519430,-8882.471304,-76456.330700,-592.164754
662.521972,-7846.182985,-71093.662214,-3404.947333
662.524513,2368.659014,-74770.920605,-1924.535449
662.527055,-9030.512492,-76303.111601,-12139.377449
662.529597,-16580.613101,-75537.016103,-11547.212695
662.532138,-2072.576638,-74158.044206,-7994.224174
662.534680,-19837.519246,-71400.100414,-6513.812290
662.537221,-6957.935855,-73851.606007,-8142.265362
662.539763,-14804.118840,-73851.606007,-9918.759623
662.542305,14804.118840,-75843.454302,-444.123565
662.544846,-16876.695478,-74464.482406,296.082377
662.547388,9178.553681,-74770.920605,12139.377449
662.549929,-296.082377,-75077.358804,7550.100608
662.552471,3404.947333,-73238.729609,12731.542202
662.555013,7402.059420,-76456.330700,1332.370696
662.557554,-11103.089130,-75383.797003,-1628.453072
662.560096,5329.482782,-76456.330700,-3849.070898
662.562637,1184.329507,-72166.195912,592.164754
662.565179,6809.894666,-70940.443115,5477.523971
662.567721,9326.594869,-76762.768900,14359.995275
662.570262,1776.494261,-76303.111601,12435.459826
662.572804,23390.507767,-80593.246390,3701.029710
662.575345,-52258.539505,-74004.825107,-10066.800811
662.577896,59216.475360,-74617.701505,9474.636058
662.580447,-31088.649564,-70021.128517,6809.894666
662.582998,8882.471304,-72319.415011,17764.942608
662.585549,8290.306550,-78448.178995,6513.812290
662.588100,-19097.313304,-74770.920605,1924.535449
662.590651,25018.960840,-78601.398095,2368.659014
662.593202,-24278.754898,-72472.634111,-5033.400406
662.595753,26203.290347,-73391.948708,5033.400406
662.598304,-8142.265362,-71400.100414,6661.853478
662.600855,-16284.530724,-73391.948708,592.164754
662.603406,-15988.448347,-78601.398095,-9030.512492
662.605957,-4293.194464,-75996.673402,-740.205942
662.608508,-11547.212695,-73085.510509,-5329.482782
662.611059,-2664.741391,-71093.662214,-5329.482782
662.613610,-8142.265362,-72779.072310,-8438.347739
662.616161,-20873.807564,-75077.358804,-11547.212695
662.618712,-7402.059420,-75843.454302,-12139.377449
662.621263,-14508.036463,-73698.386908,-1184.329507
662.623814,-3997.112087,-72625.853210,4885.359217
662.626365,-1776.494261,-75077.358804,6513.812290
662.628916,-10658.965565,-74464.482406,-8438.347739
662.631467,-7550.100608,-74311.263306,-7254.018232
662.634018,148.041188,-75996.673402,2220.617826
662.636569,-24278.754898,-69867.909418,-8290.306550
662.639120,-4885.359217,-74158.044206,-9474.636058
662.641671,-5625.565159,-77069.207099,-11547.212695
662.644222,-17764.942608,-73851.606007,-13471.748144
662.646773,-2960.823768,-74004.825107,-12287.418637
662.649324,-19245.354492,-71706.538613,-6513.812290
662.651875,-7402.059420,-74617.701505,-8734.430116
662.654426,-8438.347739,-73851.606007,-8438.347739
662.656977,3404.947333,-73698.386908,6513.812290
662.659528,6365.771101,-76609.549800,4293.194464
662.662079,-10362.883188,-74158.044206,7698.141797
662.664630,19097.313304,-76149.892501,12139.377449
662.667181,-7550.100608,-72319.415011,5329.482782
662.669732,10658.965565,-75843.454302,2220.617826
662.672283,-4885.359217,-76303.111601,-2664.741391
662.674834,-1628.453072,-75230.577904,-4145.153275
662.677385,6513.812290,-72472.634111,5921.647536
662.679944,8586.388927,-71400.100414,6513.812290
662.682502,-3701.029710,-74924.139704,14656.077652
662.685061,9622.677246,-76762.768900,7402.059420
662.687620,-17468.860231,-75996.673402,-9030.512492
662.690179,-2812.782580,-74770.920605,-4441.235652
662.692738,13619.789333,-73085.510509,14211.954086
662.695297,-592.164754,-70787.224015,11103.089130
662.697856,3404.947333,-74770.920605,13175.665768
662.700415,-444.123565,-77375.645298,5625.565159
662.702974,-11103.089130,-76609.549800,1332.370696
662.705533,10362.883188,-75996.673402,-2368.659014
662.708092,-3849.070898,-73391.948708,-740.205942
662.710651,16876.695478,-72319.415011,8438.347739
662.713209,-11399.171507,-72012.976812,9474.636058
662.715768,-23982.672521,-76149.892501,-11399.171507
662.718327,-1332.370696,-78294.959896,-3108.864956
662.720886,-18801.230927,-75077.358804,-5625.565159
662.723445,4885.359217,-70787.224015,-4885.359217
662.726004,-15544.324782,-71553.319513,-7994.224174
662.728563,-8586.388927,-74464.482406,-9030.512492
662.731122,-15692.365970,-76609.549800,-16432.571912
662.733681,-16580.613101,-73698.386908,-4589.276840
662.736240,2368.659014,-73851.606007,1628.453072
662.738799,-24426.796086,-71553.319513,2368.659014
662.741357,14952.160028,-75077.358804,11399.171507
662.743916,-22206.178260,-74924.139704,-22650.301825
662.746475,-25907.207970,-72472.634111,1480.411884
662.749034,22354.219448,-77682.083497,3997.112087
662.751593,-53294.827824,-72012.976812,-9030.512492
662.754152,15248.242405,-74924.139704,-9770.718434
662.756711,-10362.883188,-75383.797003,-18209.066173
662.759270,-33161.226202,-72319.415011,-15692.365970
662.761829,16432.571912,-74770.920605,-13027.624579
662.764388,-44412.356520,-71400.100414,-4441.235652
662.766947,25018.960840,-77528.864398,-8290.306550
662.769505,-9474.636058,-71246.881314,7254.018232
662.772064,6217.729913,-75996.673402,-592.164754
662.774623,-7698.141797,-75690.235202,8438.347739
662.777182,13915.871710,-75996.673402,11547.212695
662.779741,-3997.112087,-73391.948708,5181.441594
662.782270,7550.100608,-74770.920605,3256.906145
662.784798,-148.041188,-76456.330700,-1184.329507
662.787326,-6809.894666,-74311.263306,-7550.100608
662.789855,7994.224174,-73851.606007,4441.235652
662.792383,3256.906145,-73851.606007,11251.130318
662.794912,3108.864956,-74004.825107,2220.617826
662.797440,-1332.370696,-77222.426198,8290.306550
662.799968,-4885.359217,-79673.931792,-2516.700203
662.802497,-3997.112087,-74004.825107,2220.617826
662.805025,13323.706956,-74158.044206,13471.748144
662.807554,3701.029710,-69408.252119,9770.718434
662.810082,9622.677246,-74924.139704,8734.430116
662.812611,-4885.359217,-77222.426198,4441.235652
662.815139,-3849.070898,-75996.673402,2516.700203
662.817667,-740.205942,-75537.016103,-2220.617826
662.820196,12435.459826,-72166.195912,5625.565159
662.822724,7254.018232,-73085.510509,7402.059420
662.825253,-5033.400406,-71706.538613,7105.977043
662.827781,-26499.372724,-77069.207099,-13175.665768
662.830310,1924.535449,-77222.426198,-1628.453072
662.832838,-18801.230927,-73391.948708,-9030.512492
662.835366,2220.617826,-70634.004916,-5181.441594
662.837895,-13027.624579,-71553.319513,-7402.059420
662.840423,-14656.077652,-74617.701505,-9918.759623
662.842952,-16876.695478,-75996.673402,-15248.242405
662.845480,-16580.613101,-75230.577904,-2368.659014
662.848008,2664.741391,-74617.701505,4885.359217
662.850537,-4145.153275,-74004.825107,5773.606348
662.853065,-3701.029710,-74311.263306,-6957.935855
662.855594,-24426.796086,-75230.577904,-8438.347739
662.858122,592.164754,-74004.825107,-2516.700203
662.860651,-14508.036463,-74004.825107,-3997.112087
662.863179,-5773.606348,-74617.701505,-7550.100608
662.865707,2812.782580,-76456.330700,-11399.171507
662.868236,-32421.020260,-72472.634111,-14063.912898
662.870764,-592.164754,-74158.044206,-14952.160028
662.873293,-27387.619854,-72932.291410,-11695.253884
662.875821,-1332.370696,-74311.263306,-5921.647536
662.878349,5181.441594,-74464.482406,-888.247130
662.880878,-13767.830521,-71859.757712,6217.729913
662.883419,12435.459826,-76456.330700,10658.965565
662.885960,-7550.100608,-76762.768900,6809.894666
662.888501,9474.636058,-74464.482406,12287.418637
662.891042,6069.688724,-74924.139704,1924.535449
662.893582,-3108.864956,-74158.044206,1776.494261
662.896123,1184.329507,-75996.673402,-2664.741391
662.898664,-5477.523971,-73085.510509,-740.205942
662.901205,13027.624579,-72472.634111,5181.441594
662.903746,10807.006753,-74004.825107,4589.276840
662.906287,-21614.013506,-73545.167808,-7254.018232
662.908828,15988.448347,-76762.768900,888.247130
662.911369,-17616.901420,-76456.330700,-17172.777854
662.913910,-740.205942,-73391.948708,9030.512492
662.916451,14804.118840,-72472.634111,3256.906145
662.918992,-3701.029710,-70634.004916,12287.418637
662.921532,20873.807564,-79367.493593,7254.018232
662.924073,-15692.365970,-76762.768900,592.164754
662.926614,5181.441594,-76915.987999,-1184.329507
662.929155,6365.771101,-74464.482406,-1480.411884
662.931696,3997.112087,-70787.224015,8734.430116
662.934237,3997.112087,-73545.167808,9918.759623
662.936778,-32272.979071,-73238.729609,-14952.160028
662.939319,2368.659014,-78754.617194,-8882.471304
662.941860,-24278.754898,-74311.263306,-11251.130318
662.944401,5329.482782,-71246.881314,-6365.771101
662.946942,-14656.077652,-72166.195912,-9622.677246
662.949483,-9622.677246,-73238.729609,-6217.729913
662.952023,-8734.430116,-76609.549800,-16728.654289
662.954564,-24130.713709,-73545.167808,-9178.553681
662.957105,740.205942,-74924.139704,-2812.782580
662.959646,-19393.395680,-71859.757712,1184.329507
662.962187,3997.112087,-73545.167808,-148.041188
662.964728,-5033.400406,-74770.920605,-2368.659014
662.967269,-4589.276840,-76149.892501,3256.906145
662.969810,-19097.313304,-75537.016103,-12287.418637
662.972351,-11547.212695,-73698.386908,-8882.471304
662.974892,740.205942,-75843.454302,-11547.212695
662.977433,-26795.455100,-71859.757712,-10066.800811
662.979973,-2516.700203,-73698.386908,-10807.006753
662.982514,-18357.107362,-72625.853210,-11695.253884
662.985066,-11103.089130,-75383.797003,-7846.182985
662.987617,7846.182985,-75383.797003,3552.988522
662.990168,-16432.571912,-72166.195912,7105.977043
662.992720,19985.560434,-76149.892501,10807.006753
662.995271,-16284.530724,-74770.920605,7698.141797
662.997823,8290.306550,-74924.139704,11103.089130
663.000374,4441.235652,-75843.454302,1924.535449
663.002925,-3997.112087,-74311.263306,-148.041188
663.005477,-0.000000,-74617.701505,-2368.659014
663.008028,-1628.453072,-72779.072310,296.082377
663.010580,12435.459826,-73851.606007,6513.812290
663.013131,7254.018232,-75537.016103,15396.283594
663.015683,3701.029710,-75690.235202,14063.912898
663.018234,-4441.235652,-78141.740796,-8438.347739
663.020785,-14952.160028,-74004.825107,-3256.906145
663.023337,23094.425390,-75690.235202,14211.954086
663.025888,-5181.441594,-70021.128517,14508.036463
663.028440,20133.601622,-75077.358804,16136.489536
663.030991,-9030.512492,-76915.987999,9030.512492
663.033542,7105.977043,-76915.987999,6217.729913
663.036094,5921.647536,-76303.111601,-3849.070898
663.038645,7254.018232,-72166.195912,6069.688724
663.041197,3256.906145,-72319.415011,11843.295072
663.043748,-6661.853478,-72166.195912,4885.359217
663.046299,-25463.084405,-76303.111601,-12583.501014
663.048851,5625.565159,-77682.083497,-2072.576638
663.051402,-21614.013506,-74464.482406,-10066.800811
663.053954,-11251.130318,-69867.909418,-6217.729913
663.056505,-2960.823768,-72932.291410,-7846.182985
663.059056,-21021.848753,-74158.044206,-9178.553681
663.061608,-10066.800811,-75843.454302,-12287.418637
663.064159,-10510.924376,-76456.330700,-3552.988522
663.066718,-9622.677246,-75537.016103,1184.329507
663.069277,15692.365970,-75996.673402,12879.583391
663.071836,-0.000000,-74311.263306,-1184.329507
663.074394,-19985.560434,-72625.853210,-5033.400406
663.076953,-6661.853478,-73698.386908,-6513.812290
663.079512,-19393.395680,-73391.948708,-4441.235652
663.082071,-9030.512492,-74464.482406,-13027.624579
663.084630,-12731.542202,-72932.291410,-11103.089130
663.087188,-8734.430116,-73851.606007,-13619.789333
663.089747,-19689.478057,-72625.853210,-12139.377449
663.092306,-9030.512492,-74311.263306,-5921.647536
663.094865,-1924.535449,-74924.139704,-4737.318029
663.097424,2220.617826,-73238.729609,9770.718434
663.099982,3849.070898,-74617.701505,4885.359217
663.102541,-4589.276840,-75996.673402,11991.336260
663.105100,15100.201217,-78448.178995,11399.171507
663.107659,-10510.924376,-73391.948708,5329.482782
663.110218,7105.977043,-75230.577904,-148.041188
663.112776,-3256.906145,-75537.016103,-740.205942
663.115335,-296.082377,-73545.167808,-1480.411884
663.117894,12139.377449,-74464.482406,3552.988522
663.120453,-3849.070898,-75077.358804,14063.912898
663.123011,14359.995275,-75537.016103,18505.148550
663.125570,26795.455100,-79980.369991,3108.864956
663.128129,-23686.590144,-75537.016103,-20133.601622
663.130688,8586.388927,-74158.044206,10658.965565
663.133247,20725.766376,-72166.195912,9178.553681
663.135805,-13471.748144,-69867.909418,14656.077652
663.138364,27535.661042,-79367.493593,14952.160028
663.140923,-25167.002028,-76915.987999,1036.288319
663.143482,20133.601622,-79061.055394,-148.041188
663.146041,-2368.659014,-74004.825107,-6069.688724
663.148599,-7994.224174,-70327.566716,13027.624579
663.151158,8734.430116,-75383.797003,10066.800811
663.153717,-40267.203245,-73851.606007,-12583.501014
663.156276,13323.706956,-78907.836294,-3108.864956
663.158835,-31236.690752,-73085.510509,-11547.212695
663.161393,9918.759623,-73238.729609,-5181.441594
663.163952,-13175.665768,-71553.319513,-8882.471304
663.166511,-15692.365970,-72625.853210,-7254.018232
663.169076,-2812.782580,-77835.302597,-10066.800811
663.171642,-17616.901420,-74464.482406,-9622.677246
663.174207,-2516.700203,-74617.701505,-2368.659014
663.176772,-7698.141797,-74004.825107,-1184.329507
663.179337,-7846.182985,-71093.662214,-2812.782580
663.181903,-10510.924376,-74311.263306,740.205942
663.184468,-17468.860231,-71859.757712,-4441.235652
663.187033,-4885.359217,-74924.139704,-13323.706956
663.189598,-16876.695478,-75690.235202,-13471.748144
663.192164,-1332.370696,-74924.139704,-11547.212695
663.194729,-20577.725188,-73085.510509,-14952.160028
663.197294,-6809.894666,-72319.415011,-8438.347739
663.199859,-14656.077652,-74004.825107,-9178.553681
663.202425,-3701.029710,-74924.139704,-4885.359217
663.204990,-3256.906145,-74004.825107,12139.377449
663.207555,11103.089130,-75383.797003,6365.771101
663.210120,-7846.182985,-75230.577904,10066.800811
663.212686,20133.601622,-77528.864398,14656.077652
663.215251,-8882.471304,-74004.825107,2516.700203
663.217816,3404.947333,-74464.482406,2072.576638
663.220381,1332.370696,-75996.673402,-0.000000
663.222947,-4885.359217,-72779.072310,-2812.782580
663.225512,14804.118840,-74158.044206,6513.812290
663.228077,7698.141797,-74311.263306,10362.883188
663.230642,14804.118840,-77069.207099,8290.306550
663.233208,-18061.024985,-77375.645298,-4293.194464
663.235773,2516.700203,-76149.892501,1036.288319
663.238338,3849.070898,-74617.701505,4589.276840
663.240903,-4885.359217,-68795.375720,12879.583391
663.243469,27387.619854,-74770.920605,16432.571912
663.246034,-17024.736666,-75996.673402,4441.235652
663.248599,10955.047942,-77682.083497,5033.400406
663.251164,-4441.235652,-77222.426198,-3849.070898
663.253730,8882.471304,-72625.853210,6957.935855
663.256295,6809.894666,-73545.167808,12879.583391
663.258860,-14359.995275,-70787.224015,5477.523971
663.261425,-6661.853478,-77069.207099,-15544.324782
663.263991,-15692.365970,-75383.797003,-6809.894666
663.266556,-5921.647536,-74311.263306,-9474.636058
663.269121,-12139.377449,-71553.319513,-7994.224174
663.271692,-4589.276840,-71859.757712,-7402.059420
663.274263,-11399.171507,-74158.044206,-6217.729913
663.276833,-15988.448347,-75690.235202,-13767.830521
663.279404,-3849.070898,-75690.235202,-6809.894666
663.281974,-11103.089130,-74311.263306,-6217.729913
663.284545,-11399.171507,-72166.195912,1924.535449
663.287116,-4145.153275,-74004.825107,-4737.318029
663.289686,-16580.613101,-73698.386908,148.041188
663.292257,4737.318029,-76456.330700,1924.535449
663.294828,-19837.519246,-75690.235202,-11399.171507
663.297398,1036.288319,-75996.673402,-14952.160028
663.299969,-5921.647536,-74004.825107,-17468.860231
663.302539,-14508.036463,-72319.415011,-12139.377449
663.305110,-10214.842000,-73238.729609,-12879.583391
663.307681,-14063.912898,-73851.606007,-8142.265362
663.310251,8142.265362,-74617.701505,6661.853478
663.312822,-14211.954086,-72625.853210,-148.041188
663.315393,17320.819043,-75077.358804,11251.130318
663.317963,9030.512492,-77528.864398,8586.388927
663.320534,-7698.141797,-73085.510509,8142.265362
663.323105,14063.912898,-76149.892501,3108.864956
663.325675,-12583.501014,-73238.729609,-3701.029710
663.328246,5921.647536,-75077.358804,-2220.617826
663.330816,1480.411884,-73238.729609,-1036.288319
663.333387,10658.965565,-70021.128517,5329.482782
663.335958,15248.242405,-76609.549800,13323.706956
663.338528,-15692.365970,-77682.083497,444.123565
663.341099,5181.441594,-78141.740796,-10658.965565
663.343670,-9622.677246,-74770.920605,1332.370696
663.346240,9918.759623,-70940.443115,14063.912898
663.348811,5773.606348,-72166.195912,13323.706956
663.351382,3997.112087,-74158.044206,12435.459826
663.353952,-1776.494261,-78754.617194,5477.523971
663.356523,-11991.336260,-78141.740796,-3404.947333
663.359093,17616.901420,-74004.825107,1184.329507
663.361664,5625.565159,-72932.291410,13027.624579
663.364235,-6661.853478,-71553.319513,8734.430116
663.366805,-19541.436869,-76456.330700,-10658.965565
663.369376,-6957.935855,-77375.645298,-10214.842000
663.371947,-17912.983796,-75077.358804,-9918.759623
663.374521,-740.205942,-72319.415011,-7994.224174
663.377095,-11991.336260,-70634.004916,-6217.729913
663.379669,-5625.565159,-74464.482406,-6069.688724
663.382243,-19689.478057,-75383.797003,-12139.377449
663.384817,-19985.560434,-75996.673402,-7846.182985
663.387391,6513.812290,-75843.454302,-6957.935855
663.389965,-20429.683999,-72779.072310,-4441.235652
663.392539,-148.041188,-73391.948708,3256.906145
663.395113,-0.000000,-75537.016103,2960.823768
663.397687,-41747.615129,-71093.662214,-9326.594869
663.400261,7402.059420,-77682.083497,-6809.894666
663.402835,-28127.825796,-74617.701505,-18653.189738
663.405409,-6365.771101,-73391.948708,-11843.295072
663.407983,-6365.771101,-73085.510509,-18061.024985
663.410557,-26055.249158,-71246.881314,-9770.718434
663.413131,444.123565,-75690.235202,-11103.089130
663.415705,-9326.594869,-73545.167808,9474.636058
663.418279,-3701.029710,-74924.139704,888.247130
663.420853,6513.812290,-74617.701505,12731.542202
663.423427,5329.482782,-76762.768900,10807.006753
663.426001,1332.370696,-74770.920605,10658.965565
663.428575,9178.553681,-75230.577904,1332.370696
663.431149,-5329.482782,-75383.797003,-888.247130
663.433723,-6069.688724,-73698.386908,-2960.823768
663.436297,12139.377449,-72932.291410,1036.288319
663.438871,7105.977043,-72012.976812,6809.894666
663.441445,148.041188,-74770.920605,3997.112087
663.444019,-9474.636058,-74924.139704,6809.894666
663.446593,14508.036463,-79980.369991,5625.565159
663.449167,-5921.647536,-74311.263306,-4737.318029
663.451741,-5033.400406,-69714.690318,15100.201217
663.454315,22502.260637,-73851.606007,14211.954086
663.456889,-13027.624579,-73851.606007,7550.100608
663.459463,11399.171507,-79367.493593,11103.089130
663.462037,-16284.530724,-76149.892501,-4441.235652
663.464611,21910.095883,-74464.482406,8438.347739
663.467185,-7105.977043,-72472.634111,8734.430116
663.469759,-444.123565,-71400.100414,10955.047942
663.472333,-9770.718434,-77222.426198,-15100.201217
663.474907,-14359.995275,-74311.263306,-7994.224174
663.477484,-6217.729913,-75843.454302,-9326.594869
663.480061,-16432.571912,-72012.976812,-8734.430116
663.482638,-2516.700203,-72012.976812,-5181.441594
663.485214,-13027.624579,-74004.825107,-6069.688724
663.487791,-17024.736666,-73391.948708,-11547.212695
663.490368,-2664.741391,-77069.207099,-5181.441594
663.492945,3701.029710,-76456.330700,-7994.224174
663.495522,-19393.395680,-73545.167808,-2220.617826
663.498099,1776.494261,-72625.853210,-8586.388927
663.500676,-36714.214723,-70940.443115,-3108.864956
663.503253,-5625.565159,-73391.948708,-5477.523971
663.505830,-21762.054695,-74924.139704,-15988.448347
663.508407,-9326.594869,-74311.263306,-17320.819043
663.510984,1036.288319,-75383.797003,-16876.695478
663.513561,-25315.043216,-71093.662214,-10510.924376
663.516138,-3701.029710,-74311.263306,-6809.894666
663.518715,-6217.729913,-73698.386908,-2072.576638
663.521291,-2516.700203,-74770.920605,12139.377449
663.523868,9474.636058,-76915.987999,3404.947333
663.526445,-6957.935855,-74311.263306,10955.047942
663.529022,26203.290347,-77222.426198,18801.230927
663.531599,-12583.501014,-74004.825107,3108.864956
663.534176,6661.853478,-73391.948708,1480.411884
663.536753,-740.205942,-75843.454302,-1332.370696
663.539330,-3552.988522,-72932.291410,-1184.329507
663.541907,-444.123565,-72472.634111,3108.864956
663.544484,-1332.370696,-70021.128517,3552.988522
663.547061,-4885.359217,-75843.454302,8290.306550
663.549638,5181.441594,-80133.589091,-2516.700203
663.552215,-9918.759623,-74464.482406,-2516.700203
663.554792,21910.095883,-75230.577904,13915.871710
663.557368,5625.565159,-71706.538613,11103.089130
663.559945,13323.706956,-74004.825107,13175.665768
663.562522,-1184.329507,-76762.768900,9178.553681
663.565099,-1332.370696,-79673.931792,3701.029710
663.567676,7402.059420,-75690.235202,1184.329507
663.570253,10362.883188,-72166.195912,10807.006753
663.572830,-9178.553681,-71706.538613,12435.459826
663.575407,-16284.530724,-75230.577904,-10362.883188
663.577984,-10658.965565,-76149.892501,-12583.501014
663.580563,-19245.354492,-75537.016103,-8882.471304
663.583143,-740.205942,-74770.920605,-8290.306550
663.585722,-11103.089130,-71400.100414,-6217.729913
663.588302,-8586.388927,-73238.729609,-4737.318029
663.590881,-18505.148550,-73545.167808,-10066.800811
663.593461,-11695.253884,-77222.426198,-6365.771101
663.596040,1776.494261,-76149.892501,-7846.182985
663.598620,-5921.647536,-74924.139704,-7550.100608
663.601199,-5033.400406,-72472.634111,5033.400406
663.603778,2368.659014,-75537.016103,-7550.100608
663.606358,-30940.608376,-73545.167808,-8290.306550
663.608937,-6809.894666,-75537.016103,-6513.812290
663.611517,-9030.512492,-75230.577904,-18061.024985
663.614096,-22502.260637,-72472.634111,-15396.283594
663.616676,4737.318029,-74464.482406,-13915.871710
663.619255,-24870.919651,-72319.415011,-10807.006753
663.621835,3701.029710,-74158.044206,-9178.553681
663.624414,-10807.006753,-73085.510509,9622.677246
663.626994,9326.594869,-75843.454302,2960.823768
663.629573,-4441.235652,-75230.577904,9622.677246
663.632152,19541.436869,-77222.426198,12435.459826
663.634732,-10362.883188,-74158.044206,6661.853478
663.637311,7698.141797,-74924.139704,888.247130
663.639891,-5329.482782,-75230.577904,-2812.782580
663.642470,-3849.070898,-73085.510509,-1332.370696
663.645050,11843.295072,-71093.662214,2072.576638
663.647629,-7402.059420,-74311.263306,16284.530724
663.650209,15544.324782,-76149.892501,17024.736666
663.652788,-7550.100608,-76303.111601,-8882.471304
663.655368,-10066.800811,-74770.920605,-7402.059420
663.657947,23982.672521,-74464.482406,8586.388927
663.660526,-11991.336260,-72012.976812,14952.160028
663.663106,6809.894666,-73238.729609,15988.448347
663.665685,4441.235652,-77222.426198,5921.647536
663.668265,-13027.624579,-76609.549800,-2812.782580
663.670844,20429.683999,-77682.083497,1184.329507
663.673424,-6957.935855,-71706.538613,5477.523971
663.676003,10955.047942,-72166.195912,12879.583391
663.678583,-34789.679274,-73391.948708,-10362.883188
663.681162,2812.782580,-75230.577904,-9770.718434
663.683742,-19985.560434,-76609.549800,-13027.624579
663.686323,-1776.494261,-72166.195912,-8882.471304
663.688903,-9474.636058,-72319.415011,-6365.771101
663.691484,-13323.706956,-72932.291410,-8734.430116
663.694064,-11843.295072,-74004.825107,-9474.636058
663.696644,-19689.478057,-74770.920605,-4885.359217
663.699225,-13471.748144,-75537.016103,-9178.553681
663.701805,-21762.054695,-74617.701505,-5181.441594
663.704385,-148.041188,-72166.195912,-6661.853478
663.706966,-29164.114115,-70634.004916,-2072.576638
663.709546,-13027.624579,-73545.167808,-3997.112087
663.712127,-17320.819043,-74770.920605,-15692.365970
663.714707,-10658.965565,-73851.606007,-18653.189738
663.717287,-6217.729913,-74158.044206,-18949.272115
663.719868,-27535.661042,-71400.100414,-11399.171507
663.722448,-1480.411884,-74158.044206,-10214.842000
663.725028,-8290.306550,-73391.948708,2368.659014
663.727609,-5477.523971,-74464.482406,11547.212695
663.730189,10214.842000,-76303.111601,7698.141797
663.732770,-3701.029710,-75843.454302,9474.636058
663.735350,20873.807564,-77528.864398,17320.819043
663.737930,-8882.471304,-73545.167808,5181.441594
663.740511,-3404.947333,-74311.263306,740.205942
663.743091,3404.947333,-75383.797003,-2516.700203
663.745671,-4293.194464,-72625.853210,-888.247130
663.748252,8438.347739,-71859.757712,2516.700203
663.750832,10955.047942,-74158.044206,15988.448347
663.753413,6069.688724,-77375.645298,-2368.659014
663.755993,-38786.791361,-74158.044206,-10214.842000
663.758573,20873.807564,-75077.358804,7550.100608
663.761154,-1332.370696,-73545.167808,6957.935855
663.763734,4885.359217,-70940.443115,19541.436869
663.766314,11103.089130,-76915.987999,8438.347739
663.768895,-17616.901420,-74464.482406,1036.288319
663.771475,18949.272115,-80286.808190,-1332.370696
663.774056,-3552.988522,-72779.072310,6365.771101
663.776636,8734.430116,-72012.976812,13619.789333
663.779216,-19097.313304,-73238.729609,-2220.617826
663.781797,-13619.789333,-75843.454302,-13767.830521
663.784377,-9770.718434,-75230.577904,-8438.347739
663.786958,-5625.565159,-75383.797003,-13323.706956
663.789540,-16136.489536,-72319.415011,-8142.265362
663.792121,-2516.700203,-74004.825107,-7846.182985
663.794702,-17320.819043,-72625.853210,-6217.729913
663.797284,-19837.519246,-74311.263306,-8142.265362
663.799865,-5477.523971,-74617.701505,-9622.677246
663.802446,-11991.336260,-75690.235202,-11103.089130
663.805028,-4885.359217,-73238.729609,1036.288319
663.807609,-3997.112087,-71400.100414,-8734.430116
663.810190,-25167.002028,-74770.920605,1924.535449
663.812772,-2664.741391,-75843.454302,-8734.430116
663.815353,-18061.024985,-73851.606007,-18801.230927
663.817934,-14359.995275,-73391.948708,-17172.777854
663.820515,-6365.771101,-72472.634111,-13915.871710
663.823097,-15692.365970,-72779.072310,-9622.677246
663.825678,-6957.935855,-74158.044206,-7402.059420
663.828259,-1776.494261,-73085.510509,9622.677246
663.830841,-11695.253884,-74924.139704,888.247130
663.833422,888.247130,-75077.358804,13323.706956
663.836003,21910.095883,-77988.521696,12879.583391
663.838585,-12731.542202,-73238.729609,6809.894666
663.841166,15840.407159,-76303.111601,2072.576638
663.843747,-15100.201217,-72779.072310,-3701.029710
663.846329,10066.800811,-74617.701505,-1924.535449
663.848910,-1776.494261,-71859.757712,888.247130
663.851491,-2368.659014,-72779.072310,11399.171507
663.854073,5329.482782,-76609.549800,16728.654289
663.856654,16580.613101,-77988.521696,-2960.823768
663.859235,-29164.114115,-76609.549800,-5181.441594
663.861816,23538.548956,-74464.482406,7402.059420
663.864398,-8142.265362,-70480.785816,8290.306550
663.866979,13471.748144,-73391.948708,11991.336260
663.869560,-1036.288319,-76762.768900,5033.400406
663.872142,-9622.677246,-77835.302597,-2960.823768
663.874723,17024.736666,-75996.673402,5477.523971
663.877304,-4441.235652,-71553.319513,8734.430116
663.879886,-9474.636058,-71706.538613,3108.864956
663.882467,-20133.601622,-76609.549800,-13175.665768
663.885048,-3108.864956,-75077.358804,-6217.729913
663.887630,-14804.118840,-75230.577904,-14211.954086
663.890212,-10658.965565,-73391.948708,-8882.471304
663.892794,-0.000000,-74158.044206,-6217.729913
663.895376,-19393.395680,-73085.510509,-5329.482782
663.897958,-5477.523971,-74617.701505,-6365.771101
663.900540,-12287.418637,-77222.426198,1036.288319
663.903123,4293.194464,-76303.111601,888.247130
663.905705,3404.947333,-76456.330700,-740.205942
663.908287,-7994.224174,-72472.634111,-0.000000
663.910869,-16432.571912,-73238.729609,-3701.029710
663.913451,-17468.860231,-75230.577904,-8586.388927
663.916033,-8882.471304,-75383.797003,-16284.530724
663.918616,-12139.377449,-75843.454302,-14952.160028
663.921198,-10066.800811,-73238.729609,-10362.883188
663.923780,-14359.995275,-72625.853210,-10066.800811
663.926362,-3997.112087,-74464.482406,-7402.059420
663.928944,-2960.823768,-73085.510509,11399.171507
663.931526,17172.777854,-76456.330700,5329.482782
663.934109,-9918.759623,-74311.263306,10955.047942
663.936691,30792.567187,-77682.083497,15544.324782
663.939273,-14952.160028,-73851.606007,6513.812290
663.941855,10658.965565,-75843.454302,4589.276840
663.944437,-4885.359217,-75077.358804,-2664.741391
663.947019,-1924.535449,-73698.386908,-3108.864956
663.949602,8586.388927,-74004.825107,6957.935855
663.952184,-9030.512492,-72625.853210,15988.448347
663.954766,22502.260637,-77528.864398,15840.407159
663.957348,-45744.727216,-73545.167808,-10510.924376
663.959930,32124.937883,-75996.673402,5921.647536
663.962512,-27091.537477,-72472.634111,6069.688724
663.965095,13915.871710,-71093.662214,17764.942608
663.967677,-592.164754,-73238.729609,6809.894666
663.970259,-19837.519246,-73851.606007,1184.329507
663.972841,25759.166782,-80899.684589,-0.000000
663.975423,-7402.059420,-73238.729609,7550.100608
663.978005,14063.912898,-73085.510509,12879.583391
663.980588,-21910.095883,-72319.415011,-4145.153275
663.983170,-9474.636058,-75996.673402,-12435.459826
663.985752,-12139.377449,-74617.701505,-8882.471304
663.988334,-7254.018232,-73085.510509,-14211.954086
663.990916,-11695.253884,-72779.072310,-8734.430116
663.993497,-9178.553681,-73238.729609,-8438.347739
663.996079,-15988.448347,-72932.291410,-6217.729913
663.998661,-3552.988522,-73698.386908,-8438.347739
664.001243,-7550.100608,-77222.426198,2812.782580
664.003825,4293.194464,-76609.549800,-10066.800811
664.006407,-7994.224174,-72472.634111,-3108.864956
664.008989,-5329.482782,-74617.701505,2220.617826
664.011571,-16580.613101,-73698.386908,-7550.100608
664.014153,-14508.036463,-75537.016103,-9474.636058
664.016734,-11251.130318,-75996.673402,-18949.272115
664.019316,-9622.677246,-73545.167808,-16432.571912
664.021898,-11251.130318,-73391.948708,-15544.324782
664.024480,-17320.819043,-71859.757712,-10066.800811
664.027062,3404.947333,-74311.263306,6217.729913
664.029644,-15396.283594,-73698.386908,8734.430116
664.032226,14063.912898,-76915.987999,8734.430116
664.034808,2220.617826,-77069.207099,11695.253884
664.037390,14063.912898,-75077.358804,13915.871710
664.039971,3404.947333,-75230.577904,6513.812290
664.042553,-6217.729913,-73851.606007,740.205942
664.045135,1332.370696,-74158.044206,-3404.947333
664.047717,4441.235652,-72319.415011,-1480.411884
664.050299,1776.494261,-73698.386908,10066.800811
664.052881,16876.695478,-75843.454302,20133.601622
664.055463,-5773.606348,-76609.549800,2516.700203
664.058045,-8438.347739,-77222.426198,888.247130
664.060627,21910.095883,-78294.959896,9030.512492
664.063208,-13471.748144,-70021.128517,10362.883188
664.065790,24130.713709,-72319.415011,12731.542202
664.068372,-13323.706956,-75077.358804,4737.318029
664.070954,2072.576638,-77222.426198,740.205942
664.073536,10362.883188,-77375.645298,2664.741391
664.076118,1184.329507,-72166.195912,12287.418637
664.078700,-5921.647536,-72625.853210,5921.647536
664.081282,-23686.590144,-74924.139704,-12139.377449
664.083864,2664.741391,-75230.577904,-6957.935855
664.086445,-21762.054695,-73851.606007,-16284.530724
664.089027,-5329.482782,-72625.853210,-9326.594869
664.091609,-8882.471304,-74158.044206,-7254.018232
664.094191,-16728.654289,-72625.853210,-4885.359217
664.096773,-1480.411884,-74617.701505,-6069.688724
664.099355,-20429.683999,-75230.577904,-888.247130
664.101936,-9178.553681,-75843.454302,-8142.265362
664.104518,-2368.659014,-74464.482406,592.164754
664.107100,-4737.318029,-73545.167808,2960.823768
664.109681,-32124.937883,-71400.100414,-6957.935855
664.112263,-5181.441594,-75537.016103,-7846.182985
664.114845,-18801.230927,-75230.577904,-18061.024985
664.117427,-11695.253884,-73698.386908,-19097.313304
664.120008,-740.205942,-73851.606007,-10955.047942
664.122590,-23390.507767,-71246.881314,-10066.800811
664.125172,12435.459826,-74770.920605,3256.906145
664.127754,-28868.031738,-72932.291410,9474.636058
664.130335,27683.702231,-78448.178995,12879.583391
664.132917,-12583.501014,-76609.549800,9178.553681
664.135499,30496.484810,-76609.549800,19541.436869
664.138080,9622.677246,-75537.016103,5477.523971
664.140662,-14804.118840,-72932.291410,2368.659014
664.143244,9918.759623,-75996.673402,-3404.947333
664.145826,-17468.860231,-72625.853210,-888.247130
664.148407,17912.983796,-72779.072310,1036.288319
664.150989,-4589.276840,-75077.358804,2220.617826
664.153571,-1924.535449,-75077.358804,7254.018232
664.156153,3849.070898,-77988.521696,-8290.306550
664.158734,-18801.230927,-71553.319513,2072.576638
664.161316,11991.336260,-72625.853210,12435.459826
664.163898,-2812.782580,-71246.881314,12435.459826
664.166479,8438.347739,-74924.139704,6809.894666
664.169061,-8882.471304,-76915.987999,-1184.329507
664.171643,13619.789333,-76456.330700,3552.988522
664.174225,-7254.018232,-73545.167808,8734.430116
664.176806,3256.906145,-72319.415011,9030.512492
664.179388,-21614.013506,-75537.016103,-11103.089130
664.181970,-5477.523971,-74158.044206,-6809.894666
664.184552,-12287.418637,-74004.825107,-17616.901420
664.187133,-12879.583391,-72012.976812,-13471.748144
664.189715,-5329.482782,-74770.920605,-7105.977043
664.192297,-18209.066173,-73085.510509,-6365.771101
664.194878,-15988.448347,-74004.825107,-3701.029710
664.197460,-15692.365970,-75077.358804,1036.288319
664.200008,4885.359217,-76303.111601,6365.771101
664.202556,-3552.988522,-75077.358804,-15396.283594
664.205104,-35825.967593,-68948.594820,-4145.153275
664.207652,21910.095883,-75230.577904,6069.688724
664.210200,-47373.180288,-72166.195912,-12583.501014
664.212748,2960.823768,-76609.549800,-14063.912898
664.215296,10807.006753,-75690.235202,-21762.054695
664.217844,-30496.484810,-71859.757712,-14359.995275
664.220392,6365.771101,-75230.577904,-11399.171507
664.222940,-13915.871710,-71400.100414,6069.688724
664.225487,-10955.047942,-74004.825107,5921.647536
664.228035,13767.830521,-76915.987999,15692.365970
664.230583,-5181.441594,-76915.987999,8438.347739
664.233131,21169.889941,-76456.330700,17468.860231
664.235679,11251.130318,-75383.797003,4737.318029
664.238227,-14656.077652,-73545.167808,-740.205942
664.240775,9918.759623,-74617.701505,-3552.988522
664.243323,-13175.665768,-73238.729609,-1036.288319
664.245871,13323.706956,-72625.853210,592.164754
664.248419,-5181.441594,-73085.510509,14211.954086
664.250967,2516.700203,-77375.645298,3701.029710
664.253515,-15248.242405,-76762.768900,-4885.359217
664.256063,3404.947333,-72319.415011,7105.977043
664.258611,1480.411884,-71400.100414,11991.336260
664.261159,16728.654289,-72472.634111,12287.418637
664.263707,-6513.812290,-76456.330700,5033.400406
664.266254,9178.553681,-77835.302597,-0.000000
664.268802,-3404.947333,-75843.454302,3108.864956
664.271350,2220.617826,-72319.415011,14508.036463
664.273898,-13915.871710,-73545.167808,-9474.636058
664.276446,-16284.530724,-74770.920605,-13471.748144
664.278994,-12435.459826,-73085.510509,-11547.212695
664.281542,-8734.430116,-73545.167808,-15396.283594
664.284090,-14952.160028,-73698.386908,-10658.965565
664.286638,-6513.812290,-74464.482406,-7994.224174
664.289186,-14804.118840,-72472.634111,-5773.606348
664.291734,-12435.459826,-75230.577904,-1628.453072
664.294282,-16876.695478,-74311.263306,-5181.441594
664.296830,7994.224174,-77835.302597,1332.370696
664.299378,-26203.290347,-73698.386908,-2516.700203
664.301932,-5921.647536,-70480.785816,-1480.411884
664.304486,-13471.748144,-74770.920605,-5033.400406
664.307039,-29460.196492,-74617.701505,-12731.542202
664.309593,5477.523971,-77069.207099,-19689.478057
664.312147,-20133.601622,-72625.853210,-16136.489536
664.314701,-2220.617826,-73698.386908,-7994.224174
664.317255,-5033.400406,-73085.510509,-5921.647536
664.319809,-3108.864956,-72625.853210,13767.830521
664.322363,-1628.453072,-75843.454302,888.247130
664.324917,-1628.453072,-75383.797003,13175.665768
664.327471,30940.608376,-78754.617194,10807.006753
664.330025,-8438.347739,-73698.386908,8290.306550
664.332578,12435.459826,-74924.139704,4293.194464
664.335132,-11103.089130,-74924.139704,-1184.329507
664.337686,-2072.576638,-73238.729609,-2220.617826
664.340240,10066.800811,-72166.195912,-2368.659014
664.342794,7402.059420,-74158.044206,7698.141797
664.345348,-4441.235652,-75077.358804,4589.276840
664.347902,-6513.812290,-76303.111601,-5329.482782
664.350456,15840.407159,-76303.111601,8290.306550
664.353010,-11399.171507,-72625.853210,12287.418637
664.355564,23834.631332,-73851.606007,15840.407159
664.358117,-3701.029710,-74464.482406,6217.729913
664.360671,-2220.617826,-76762.768900,1036.288319
664.363225,14063.912898,-77682.083497,6365.771101
664.365779,-9030.512492,-72166.195912,7698.141797
664.368333,-7846.182985,-73238.729609,1036.288319
664.370887,-23686.590144,-75383.797003,-12879.583391
664.373441,-296.082377,-74158.044206,-5773.606348
664.375995,-14952.160028,-73545.167808,-18061.024985
664.378549,-12879.583391,-72472.634111,-11695.253884
664.381103,-4145.153275,-75383.797003,-8586.388927
664.383661,-7402.059420,-72779.072310,-3701.029710
664.386220,-4589.276840,-75077.358804,-2812.782580
664.388779,1332.370696,-74924.139704,-5773.606348
664.391338,-8882.471304,-76149.892501,-11251.130318
664.393897,-8734.430116,-74464.482406,-9326.594869
664.396456,-14359.995275,-70940.443115,-148.041188
664.399015,-20281.642811,-72472.634111,-6365.771101
664.401574,-21465.972318,-73545.167808,-14063.912898
664.404133,-9474.636058,-75996.673402,-20577.725188
664.406692,-9474.636058,-73851.606007,-19837.519246
664.409250,-8734.430116,-72932.291410,-10510.924376
664.411809,-5921.647536,-72472.634111,-8586.388927
664.414368,-2220.617826,-72319.415011,12139.377449
664.416927,-1036.288319,-75843.454302,1924.535449
664.419486,-2812.782580,-75690.235202,9918.759623
664.422045,23982.672521,-78754.617194,10362.883188
664.424604,-16284.530724,-73851.606007,7402.059420
664.427163,14508.036463,-74311.263306,6809.894666
664.429722,-9474.636058,-74311.263306,-2516.700203
664.432281,444.123565,-73545.167808,-2960.823768
664.434839,13471.748144,-75537.016103,2368.659014
664.437398,-13619.789333,-72625.853210,6217.729913
664.439957,49741.839302,-78907.836294,20873.807564
664.442516,-10658.965565,-77222.426198,-9770.718434
664.445075,-25759.166782,-71246.881314,-3256.906145
664.447634,30496.484810,-74311.263306,9326.594869
664.450193,-25167.002028,-67569.622924,9326.594869
664.452752,31532.773129,-76762.768900,9178.553681
664.455311,-26499.372724,-74464.482406,-4145.153275
664.457869,30200.402434,-77988.521696,6809.894666
664.460428,-17912.983796,-74770.920605,6069.688724
664.462987,-21910.095883,-70327.566716,-1776.494261
664.465546,-5773.606348,-77528.864398,-14656.077652
664.468105,-21614.013506,-71553.319513,-7550.100608
664.470664,4145.153275,-75230.577904,-16432.571912
664.473223,-29164.114115,-71093.662214,-14063.912898
664.475782,11547.212695,-75843.454302,-7105.977043
664.478341,-27831.743419,-73698.386908,-6217.729913
664.480900,-20577.725188,-73698.386908,-1036.288319
664.483458,-0.000000,-75230.577904,-4441.235652
664.486022,-8882.471304,-76456.330700,444.123565
664.488585,2072.576638,-75537.016103,1184.329507
664.491148,-10510.924376,-72932.291410,-2516.700203
664.493711,-13471.748144,-74004.825107,-5329.482782
664.496274,-21762.054695,-74004.825107,-12435.459826
664.498837,-9178.553681,-74770.920605,-20725.766376
664.501400,-11103.089130,-72472.634111,-17024.736666
664.503963,-13767.830521,-72319.415011,-10214.842000
664.506526,2960.823768,-73238.729609,-4589.276840
664.509089,-16284.530724,-72012.976812,10510.924376
664.511653,13027.624579,-76456.330700,7254.018232
664.514216,-10214.842000,-76609.549800,12583.501014
664.516779,31828.855506,-79061.055394,15396.283594
664.519342,-2960.823768,-74617.701505,5921.647536
664.521905,5773.606348,-74158.044206,5625.565159
664.524468,-7846.182985,-74924.139704,-3997.112087
664.527031,1924.535449,-71859.757712,-2368.659014
664.529594,8734.430116,-74311.263306,2368.659014
664.532157,6069.688724,-72779.072310,17764.942608
664.534721,11251.130318,-77375.645298,7254.018232
664.537284,-25463.084405,-75383.797003,-11843.295072
664.539847,11547.212695,-75690.235202,8586.388927
664.542410,-9770.718434,-71400.100414,11991.336260
664.544973,13175.665768,-71093.662214,13471.748144
664.547536,-1184.329507,-74924.139704,5329.482782
664.550099,5181.441594,-77375.645298,2368.659014
664.552662,3404.947333,-76915.987999,5033.400406
664.555225,-6365.771101,-72625.853210,11843.295072
664.557789,-19541.436869,-74004.825107,-11843.295072
664.560352,-6957.935855,-74004.825107,-10066.800811
664.562915,-21762.054695,-71859.757712,-15840.407159
664.565478,-1480.411884,-73545.167808,-15248.242405
664.568041,-15840.407159,-74464.482406,-14804.118840
664.570604,-9770.718434,-74464.482406,-7105.977043
664.573167,-11251.130318,-74158.044206,-5625.565159
664.575730,-13323.706956,-72012.976812,-7698.141797
664.578293,-11251.130318,-75383.797003,-5329.482782
664.580856,-444.123565,-76609.549800,-2072.576638
664.583420,-9178.553681,-74464.482406,-6809.894666
664.585983,-33753.390955,-69714.690318,-6809.894666
664.588549,-148.041188,-74158.044206,-6513.812290
664.591116,-28127.825796,-74617.701505,-19985.560434
664.593683,-17320.819043,-74004.825107,-17764.942608
664.596249,2960.823768,-74464.482406,-14804.118840
664.598816,-21762.054695,-70940.443115,-9326.594869
664.601383,13915.871710,-74158.044206,8586.388927
664.603949,-27683.702231,-71400.100414,1036.288319
664.606516,21317.931130,-77988.521696,15100.201217
664.609083,-5921.647536,-77835.302597,8734.430116
664.611649,-4885.359217,-73085.510509,15988.448347
664.614216,22650.301825,-76456.330700,4885.359217
664.616782,-25315.043216,-71400.100414,-2072.576638
664.619349,18061.024985,-76303.111601,-2072.576638
664.621916,-4145.153275,-71859.757712,-4737.318029
664.624482,7994.224174,-73851.606007,2072.576638
664.627049,-3701.029710,-74770.920605,9474.636058
664.629616,4441.235652,-77069.207099,10214.842000
664.632182,11991.336260,-78448.178995,5625.565159
664.634749,-7698.141797,-71859.757712,8734.430116
664.637316,17764.942608,-73085.510509,12583.501014
664.639882,1480.411884,-74924.139704,4885.359217
664.642449,5033.400406,-75996.673402,-0.000000
664.645016,12583.501014,-77682.083497,7846.182985
664.647582,-6957.935855,-73391.948708,8734.430116
664.650149,-13767.830521,-73391.948708,-5181.441594
664.652716,-16432.571912,-75690.235202,-12435.459826
664.655282,-10807.006753,-72319.415011,-8882.471304
664.657849,-4145.153275,-74311.263306,-19541.436869
664.660415,-21465.972318,-71859.757712,-13175.665768
664.662982,740.205942,-76609.549800,-6513.812290
664.665549,-23982.672521,-74004.825107,-5329.482782
664.668115,1036.288319,-73545.167808,-3404.947333
664.670682,2072.576638,-76456.330700,6809.894666
664.673249,-8882.471304,-75996.673402,-10362.883188
664.675815,-2812.782580,-76303.111601,1480.411884
664.678382,-11695.253884,-71246.881314,-6957.935855
664.680949,-31828.855506,-71093.662214,-5625.565159
664.683515,-1036.288319,-75690.235202,-16432.571912
664.686082,-26795.455100,-74464.482406,-18949.272115
664.688649,-1480.411884,-74464.482406,-17616.901420
664.691217,-17616.901420,-72779.072310,-11251.130318
664.693786,3404.947333,-72472.634111,6365.771101
664.696355,-17468.860231,-72625.853210,4293.194464
664.698924,17320.819043,-76609.549800,17320.819043
664.701493,-3997.112087,-78141.740796,10214.842000
664.704061,21910.095883,-76762.768900,19541.436869
664.706630,1480.411884,-75996.673402,3108.864956
664.709199,-16728.654289,-72012.976812,888.247130
664.711768,5033.400406,-74464.482406,-5033.400406
664.714337,-15988.448347,-72625.853210,888.247130
664.716906,9030.512492,-72319.415011,12879.583391
664.719474,32865.143825,-77069.207099,11547.212695
664.722043,-34345.555709,-74617.701505,-5773.606348
664.724612,34049.473332,-80746.465489,6217.729913
664.727181,11991.336260,-74004.825107,8586.388927
664.729750,-11843.295072,-69408.252119,17616.901420
664.732318,25018.960840,-75077.358804,10214.842000
664.734887,-25167.002028,-73391.948708,-3701.029710
664.737456,36862.255912,-78907.836294,12435.459826
664.740025,-25018.960840,-72779.072310,5033.400406
664.742594,-3701.029710,-73545.167808,3701.029710
664.745162,-22206.178260,-78448.178995,-15840.407159
664.747731,-37306.379477,-69101.813920,-11103.089130
664.750300,15840.407159,-75690.235202,-14952.160028
664.752869,-38490.708984,-70634.004916,-17320.819043
664.755438,8734.430116,-77375.645298,-6661.853478
664.758007,-19541.436869,-74924.139704,-7698.141797
664.760575,-11695.253884,-74158.044206,-888.247130
664.763144,6809.894666,-75383.797003,-2368.659014
664.765713,-15100.201217,-73545.167808,-6069.688724
664.768282,740.205942,-74158.044206,-5625.565159
664.770851,-17912.983796,-72779.072310,-296.082377
664.773419,-7254.018232,-73851.606007,-7698.141797
664.775988,-21465.972318,-75537.016103,-18209.066173
664.778557,-7254.018232,-75383.797003,-19837.519246
664.781126,-3552.988522,-73698.386908,-19985.560434
664.783695,-20725.766376,-72625.853210,-11695.253884
664.786263,7846.182985,-72625.853210,10066.800811
664.788832,-20577.725188,-72779.072310,-592.164754
664.791401,10362.883188,-75843.454302,15248.242405
664.793972,8290.306550,-79214.274493,9474.636058
664.796542,6661.853478,-75077.358804,13471.748144
664.799113,18949.272115,-76149.892501,1924.535449
664.801684,-20281.642811,-72012.976812,740.205942
664.804254,13915.871710,-75077.358804,-0.000000
664.806825,-10955.047942,-73698.386908,3256.906145
664.809396,24278.754898,-72779.072310,14804.118840
664.811966,-2812.782580,-77069.207099,7254.018232
664.814537,148.041188,-77988.521696,8290.306550
664.817108,16136.489536,-80133.589091,2812.782580
664.819679,-13915.871710,-71246.881314,11251.130318
664.822249,19689.478057,-72012.976812,17172.777854
664.824820,-7994.224174,-73698.386908,4885.359217
