#time,accel_x,accel_y,accel_z
1915.634134,296.082377,-74158.044206,2368.659014
1915.636699,296.082377,-73851.606007,592.164754
1915.639265,-740.205942,-74158.044206,740.205942
1915.641831,296.082377,-74311.263306,3404.947333
1915.644397,1184.329507,-74464.482406,3256.906145
1915.646963,888.247130,-74158.044206,3108.864956
1915.649528,-444.123565,-74464.482406,296.082377
1915.652094,148.041188,-74464.482406,444.123565
1915.654660,-1036.288319,-74311.263306,1924.535449
1915.657226,-0.000000,-74311.263306,2960.823768
1915.659791,888.247130,-74311.263306,2664.741391
1915.662357,-592.164754,-74311.263306,296.082377
1915.664923,-592.164754,-74004.825107,296.082377
1915.667489,-592.164754,-74464.482406,740.205942
1915.670055,148.041188,-74464.482406,2812.782580
1915.672620,592.164754,-73698.386908,2220.617826
1915.675186,740.205942,-74617.701505,1628.453072
1915.677752,444.123565,-74158.044206,-148.041188
1915.680318,-1184.329507,-74464.482406,1184.329507
1915.682883,592.164754,-74617.701505,2516.700203
1915.685449,-12583.501014,-75077.358804,-1184.329507
1915.688015,14952.160028,-72779.072310,5033.400406
1915.690581,4293.194464,-76303.111601,5625.565159
1915.693147,-3552.988522,-75230.577904,8882.471304
1915.695712,20725.766376,-74617.701505,8290.306550
1915.698278,-296.082377,-75383.797003,11103.089130
1915.700844,14952.160028,-75383.797003,10807.006753
1915.703410,9474.636058,-74770.920605,7698.141797
1915.705975,5921.647536,-73545.167808,3404.947333
1915.708541,-1776.494261,-73698.386908,-148.041188
1915.711107,-4589.276840,-72472.634111,2368.659014
1915.713673,-296.082377,-73238.729609,592.164754
1915.716239,-2812.782580,-74158.044206,148.041188
1915.718804,8290.306550,-73238.729609,3849.070898
1915.721370,-5773.606348,-75537.016103,-2960.823768
1915.723784,-13323.706956,-75383.797003,-3404.947333
1915.726197,-6809.894666,-74770.920605,-5625.565159
1915.728611,-6365.771101,-72779.072310,-3552.988522
1915.731024,-2516.700203,-72319.415011,-4737.318029
1915.733438,888.247130,-74004.825107,-1628.453072
1915.735851,-2960.823768,-75843.454302,888.247130
1915.738265,3997.112087,-74770.920605,2516.700203
1915.740678,-7698.141797,-73851.606007,-0.000000
1915.743092,-11843.295072,-75537.016103,3849.070898
1915.745505,2664.741391,-74770.920605,6809.894666
1915.747919,3997.112087,-73238.729609,-9326.594869
1915.750332,-7254.018232,-72472.634111,5329.482782
1915.752746,2220.617826,-74770.920605,7994.224174
1915.755159,-3256.906145,-77528.864398,-8882.471304
1915.757573,-20133.601622,-74924.139704,1332.370696
1915.759986,2220.617826,-73851.606007,1628.453072
1915.762399,-12435.459826,-74311.263306,-3997.112087
1915.764813,2812.782580,-74464.482406,-3552.988522
1915.767226,3701.029710,-75537.016103,-7994.224174
1915.769640,-11103.089130,-75537.016103,-1480.411884
1915.772053,1480.411884,-74617.701505,444.123565
1915.774467,-14211.954086,-73851.606007,3256.906145
1915.776880,-6217.729913,-74158.044206,2960.823768
1915.779294,740.205942,-74158.044206,-4589.276840
1915.781707,3256.906145,-74004.825107,-4441.235652
1915.784121,3997.112087,-74924.139704,-444.123565
1915.786534,-15396.283594,-74617.701505,1924.535449
1915.788948,-2220.617826,-75230.577904,-3997.112087
1915.791361,-19541.436869,-74311.263306,-3108.864956
1915.793775,11251.130318,-72625.853210,5033.400406
1915.796188,-592.164754,-72932.291410,1628.453072
1915.798602,9622.677246,-72472.634111,5921.647536
1915.801015,1776.494261,-77222.426198,2960.823768
1915.803429,5921.647536,-75996.673402,8438.347739
1915.805842,-2664.741391,-74770.920605,8882.471304
1915.808256,592.164754,-74158.044206,4293.194464
1915.810669,888.247130,-73698.386908,2072.576638
1915.813083,12583.501014,-72166.195912,1628.453072
1915.815496,5329.482782,-72319.415011,3849.070898
1915.817910,6069.688724,-74004.825107,6513.812290
1915.820374,-4441.235652,-76915.987999,-148.041188
1915.822839,-6217.729913,-74004.825107,5921.647536
1915.825303,7698.141797,-72625.853210,3997.112087
1915.827768,-148.041188,-72932.291410,8290.306550
1915.830232,8882.471304,-75077.358804,3701.029710
1915.832696,148.041188,-77528.864398,3997.112087
1915.835161,-3552.988522,-74004.825107,2664.741391
1915.837625,-3552.988522,-75843.454302,12287.418637
1915.840090,17468.860231,-74158.044206,13175.665768
1915.842554,7105.977043,-73698.386908,-8290.306550
1915.845019,-5033.400406,-73391.948708,296.082377
1915.847483,9770.718434,-75843.454302,1480.411884
1915.849947,-19097.313304,-75383.797003,2072.576638
1915.852412,14952.160028,-72932.291410,6217.729913
1915.854876,-17912.983796,-73545.167808,4589.276840
1915.857341,17912.983796,-72319.415011,6661.853478
1915.859805,-5921.647536,-74617.701505,10066.800811
1915.862270,15544.324782,-74464.482406,9030.512492
1915.864734,-9770.718434,-76456.330700,5625.565159
1915.867198,-2220.617826,-74924.139704,3108.864956
1915.869663,6661.853478,-73851.606007,2368.659014
1915.872127,-2368.659014,-72779.072310,1776.494261
1915.874592,12139.377449,-72932.291410,1924.535449
1915.877056,7698.141797,-73851.606007,10955.047942
1915.879521,8586.388927,-74004.825107,13619.789333
1915.881985,-9030.512492,-76456.330700,7994.224174
1915.884449,-4737.318029,-75996.673402,444.123565
1915.886914,15840.407159,-72932.291410,9918.759623
1915.889378,1036.288319,-72472.634111,-592.164754
1915.891843,4145.153275,-73238.729609,2220.617826
1915.894307,-11843.295072,-78294.959896,-6809.894666
1915.896772,-6069.688724,-74158.044206,3404.947333
1915.899236,1184.329507,-73851.606007,444.123565
1915.901700,-17616.901420,-73851.606007,148.041188
1915.904165,6069.688724,-73391.948708,-4737.318029
1915.906629,-2664.741391,-75537.016103,-4589.276840
1915.909094,-5625.565159,-72625.853210,-1776.494261
1915.911558,2664.741391,-75230.577904,-1628.453072
1915.914023,-14656.077652,-75077.358804,2960.823768
1915.916487,2368.659014,-75383.797003,-1332.370696
1915.918988,-8586.388927,-73391.948708,-2368.659014
1915.921489,-5181.441594,-73545.167808,-3997.112087
1915.923990,-1480.411884,-74004.825107,-5181.441594
1915.926491,-15692.365970,-73851.606007,-5181.441594
1915.928992,-3849.070898,-72625.853210,-592.164754
1915.931493,-6217.729913,-74924.139704,5181.441594
1915.933995,3404.947333,-75996.673402,2812.782580
1915.936496,-3552.988522,-74617.701505,-10066.800811
1915.938997,-7994.224174,-72472.634111,-1776.494261
1915.941498,12287.418637,-73698.386908,5625.565159
1915.943999,-27535.661042,-73085.510509,-6069.688724
1915.946500,5921.647536,-77069.207099,1036.288319
1915.949001,-20281.642811,-78448.178995,-1332.370696
1915.951502,11251.130318,-73085.510509,-7698.141797
1915.954003,2812.782580,-74924.139704,-8882.471304
1915.956504,-3701.029710,-72779.072310,-2664.741391
1915.959005,-3404.947333,-75077.358804,-2072.576638
1915.961506,-15840.407159,-74464.482406,296.082377
1915.964008,-2664.741391,-74311.263306,-888.247130
1915.966509,-148.041188,-75077.358804,-0.000000
1915.969010,3552.988522,-73238.729609,-1184.329507
1915.971511,2812.782580,-73698.386908,1184.329507
1915.974012,-11695.253884,-74158.044206,-888.247130
1915.976513,-12731.542202,-75996.673402,-6217.729913
1915.979014,-13323.706956,-75690.235202,-5329.482782
1915.981515,9474.636058,-72319.415011,-888.247130
1915.984016,148.041188,-71859.757712,4441.235652
1915.986517,13471.748144,-72932.291410,4589.276840
1915.989018,-3849.070898,-75537.016103,7550.100608
1915.991520,20725.766376,-75843.454302,12879.583391
1915.994021,-13471.748144,-76456.330700,9918.759623
1915.996522,4293.194464,-74311.263306,3849.070898
1915.999023,2072.576638,-74770.920605,-888.247130
1916.001524,9770.718434,-71553.319513,888.247130
1916.004025,10807.006753,-71706.538613,4441.235652
1916.006526,2812.782580,-74311.263306,8734.430116
1916.009027,-1628.453072,-75230.577904,3108.864956
1916.011528,-3849.070898,-76303.111601,6957.935855
1916.014029,9178.553681,-73698.386908,5181.441594
1916.016530,-444.123565,-73851.606007,8290.306550
1916.019055,19541.436869,-74924.139704,2812.782580
1916.021580,-740.205942,-76609.549800,7698.141797
1916.024104,16284.530724,-74004.825107,-0.000000
1916.026629,-6661.853478,-74004.825107,-740.205942
1916.029154,444.123565,-74464.482406,7402.059420
1916.031678,12879.583391,-75230.577904,4441.235652
1916.034203,-1776.494261,-74617.701505,-444.123565
1916.036727,-15840.407159,-72932.291410,1480.411884
1916.039252,22650.301825,-73851.606007,1776.494261
1916.041777,-10510.924376,-74158.044206,2664.741391
1916.044301,6513.812290,-73851.606007,10214.842000
1916.046826,-2516.700203,-72932.291410,6661.853478
1916.049351,-2368.659014,-72319.415011,11843.295072
1916.051875,12139.377449,-75077.358804,4589.276840
1916.054400,-888.247130,-75230.577904,2664.741391
1916.056925,9030.512492,-74464.482406,-1184.329507
1916.059449,-1628.453072,-73391.948708,-2072.576638
1916.061974,15988.448347,-72012.976812,9918.759623
1916.064498,5181.441594,-74311.263306,9918.759623
1916.067023,1036.288319,-73545.167808,8290.306550
1916.069548,592.164754,-75843.454302,-1628.453072
1916.072072,1776.494261,-74617.701505,4441.235652
1916.074597,7698.141797,-72472.634111,2664.741391
1916.077122,9030.512492,-73238.729609,-2368.659014
1916.079646,-21762.054695,-73851.606007,-4885.359217
1916.082171,7550.100608,-74924.139704,-4293.194464
1916.084695,-21317.931130,-73238.729609,-148.041188
1916.087220,7698.141797,-72166.195912,1480.411884
1916.089745,-2812.782580,-75690.235202,-7105.977043
1916.092269,-10658.965565,-74617.701505,-5329.482782
1916.094794,12435.459826,-74311.263306,888.247130
1916.097319,-15544.324782,-74004.825107,1924.535449
1916.099843,1184.329507,-74311.263306,1628.453072
1916.102368,-12435.459826,-76149.892501,-1924.535449
1916.104893,-3849.070898,-73698.386908,-4145.153275
1916.107417,1332.370696,-73545.167808,-1480.411884
1916.109942,-7105.977043,-74770.920605,-1776.494261
1916.112466,-6809.894666,-75843.454302,-1036.288319
1916.114991,-4737.318029,-74004.825107,-2072.576638
1916.117516,-6365.771101,-74617.701505,5181.441594
1916.120058,11843.295072,-76456.330700,12583.501014
1916.122599,7698.141797,-75077.358804,-8142.265362
1916.125141,-14063.912898,-72932.291410,148.041188
1916.127683,27683.702231,-72779.072310,7402.059420
1916.130224,-28719.990550,-74311.263306,-1480.411884
1916.132766,14952.160028,-74004.825107,296.082377
1916.135308,-14359.995275,-74924.139704,-7550.100608
1916.137849,-15988.448347,-72319.415011,-6217.729913
1916.140391,8290.306550,-73851.606007,-11991.336260
1916.142933,-16284.530724,-71553.319513,-3404.947333
1916.145474,2960.823768,-75077.358804,-4441.235652
1916.148016,-16284.530724,-75230.577904,-3404.947333
1916.150557,2368.659014,-73698.386908,-592.164754
1916.153099,-2072.576638,-75383.797003,-1036.288319
1916.155641,6513.812290,-72932.291410,5625.565159
1916.158182,-5625.565159,-74924.139704,1332.370696
1916.160724,-10955.047942,-74158.044206,-5773.606348
1916.163266,-9326.594869,-75230.577904,-6957.935855
1916.165807,1036.288319,-73391.948708,-2812.782580
1916.168349,2812.782580,-72472.634111,2368.659014
1916.170890,8142.265362,-73085.510509,7105.977043
1916.173432,3849.070898,-74004.825107,9326.594869
1916.175974,14359.995275,-75996.673402,10510.924376
1916.178515,-9326.594869,-76149.892501,11547.212695
1916.181057,7994.224174,-75537.016103,3552.988522
1916.183599,-2072.576638,-73851.606007,148.041188
1916.186140,11103.089130,-72012.976812,444.123565
1916.188682,8734.430116,-72012.976812,2664.741391
1916.191224,11399.171507,-73085.510509,6365.771101
1916.193765,-2220.617826,-76456.330700,3849.070898
1916.196307,-4145.153275,-75077.358804,7105.977043
1916.198848,3404.947333,-74158.044206,6069.688724
1916.201310,4293.194464,-74770.920605,7698.141797
1916.203771,17616.901420,-75383.797003,3256.906145
1916.206232,3701.029710,-76149.892501,5329.482782
1916.208693,1036.288319,-76303.111601,8882.471304
1916.211155,10066.800811,-73698.386908,15544.324782
1916.213616,17320.819043,-74924.139704,-3849.070898
1916.216077,-5921.647536,-73698.386908,12139.377449
1916.218538,31828.855506,-77069.207099,1036.288319
1916.220999,-29312.155303,-74464.482406,2960.823768
1916.223461,20281.642811,-71093.662214,1332.370696
1916.225922,-18949.272115,-74770.920605,6217.729913
1916.228383,1480.411884,-72779.072310,14804.118840
1916.230844,10066.800811,-74464.482406,4145.153275
1916.233306,-888.247130,-72625.853210,3404.947333
1916.235767,10214.842000,-75077.358804,1480.411884
1916.238228,-3849.070898,-75077.358804,-444.123565
1916.240689,3997.112087,-73238.729609,2072.576638
1916.243151,11991.336260,-73698.386908,9178.553681
1916.245612,13323.706956,-72319.415011,11251.130318
1916.248073,-1628.453072,-74924.139704,11103.089130
1916.250534,-5033.400406,-76609.549800,740.205942
1916.252995,1628.453072,-75996.673402,2664.741391
1916.255457,8586.388927,-72779.072310,6069.688724
1916.257918,11991.336260,-72932.291410,-3404.947333
1916.260379,-23242.466579,-75537.016103,-5625.565159
1916.262840,5477.523971,-74464.482406,-4145.153275
1916.265302,-19837.519246,-73391.948708,-444.123565
1916.267763,2960.823768,-72932.291410,3849.070898
1916.270224,-5181.441594,-75077.358804,-5921.647536
1916.272685,-3404.947333,-75077.358804,-3552.988522
1916.275147,8734.430116,-73851.606007,1036.288319
1916.277608,-16432.571912,-74004.825107,1480.411884
1916.280069,1036.288319,-74770.920605,1036.288319
1916.282530,-14508.036463,-76149.892501,-3701.029710
1916.284991,-1628.453072,-73085.510509,-4737.318029
1916.287453,-5329.482782,-73391.948708,-1776.494261
1916.289914,-2072.576638,-74464.482406,-1332.370696
1916.292375,7550.100608,-72932.291410,-148.041188
1916.294836,-12879.583391,-74924.139704,1184.329507
1916.297298,-2516.700203,-74464.482406,8882.471304
1916.299793,5773.606348,-74770.920605,-3997.112087
1916.302289,-10214.842000,-73545.167808,-2368.659014
1916.304785,-3256.906145,-73391.948708,7254.018232
1916.307281,-888.247130,-74158.044206,6661.853478
1916.309777,-10510.924376,-73238.729609,-3404.947333
1916.312273,-11547.212695,-75843.454302,-3404.947333
1916.314769,5921.647536,-74924.139704,-7105.977043
1916.317264,-12287.418637,-75077.358804,-4885.359217
1916.319760,2368.659014,-73851.606007,-4441.235652
1916.322256,-9622.677246,-73391.948708,-3849.070898
1916.324752,-7402.059420,-75077.358804,-2516.700203
1916.327248,-4293.194464,-74770.920605,1776.494261
1916.329744,4737.318029,-74924.139704,2072.576638
1916.332240,1480.411884,-74004.825107,2812.782580
1916.334735,-13915.871710,-74004.825107,-3552.988522
1916.337231,-6069.688724,-75537.016103,-6217.729913
1916.339727,-14804.118840,-75690.235202,-8438.347739
1916.342223,10214.842000,-72625.853210,-1628.453072
1916.344719,-7550.100608,-72625.853210,1184.329507
1916.347215,14656.077652,-72319.415011,7698.141797
1916.349711,9918.759623,-75537.016103,7402.059420
1916.352206,5773.606348,-75843.454302,13323.706956
1916.354702,-10214.842000,-75230.577904,3108.864956
1916.357198,4145.153275,-74924.139704,5329.482782
1916.359694,-296.082377,-74004.825107,1036.288319
1916.362190,9178.553681,-71400.100414,444.123565
1916.364686,14211.954086,-70940.443115,4737.318029
1916.367182,1776.494261,-75690.235202,6661.853478
1916.369677,592.164754,-76915.987999,5329.482782
1916.372173,-3108.864956,-76762.768900,8734.430116
1916.374669,3849.070898,-72472.634111,7254.018232
1916.377165,740.205942,-74158.044206,7402.059420
1916.379661,3849.070898,-73698.386908,2960.823768
1916.382157,3256.906145,-75383.797003,2664.741391
1916.384653,-14804.118840,-74311.263306,5181.441594
1916.387148,-740.205942,-74004.825107,10214.842000
1916.389644,13619.789333,-74004.825107,592.164754
1916.392140,-12879.583391,-73851.606007,5625.565159
1916.394636,38046.585419,-75230.577904,10362.883188
1916.397132,-23538.548956,-73085.510509,2368.659014
1916.399654,14656.077652,-72472.634111,8586.388927
1916.402176,-4145.153275,-76609.549800,12139.377449
1916.404698,-5921.647536,-74464.482406,12879.583391
1916.407221,15692.365970,-74464.482406,4293.194464
1916.409743,-4737.318029,-73545.167808,1332.370696
1916.412265,4441.235652,-73391.948708,-296.082377
1916.414787,7402.059420,-74158.044206,-148.041188
1916.417310,4737.318029,-71859.757712,5329.482782
1916.419832,9178.553681,-73545.167808,11103.089130
1916.422354,-8142.265362,-75690.235202,6069.688724
1916.424876,1036.288319,-75996.673402,3701.029710
1916.427398,12583.501014,-75077.358804,5625.565159
1916.429921,3552.988522,-72625.853210,-0.000000
1916.432443,3108.864956,-73238.729609,1480.411884
1916.434965,-18209.066173,-76456.330700,-9030.512492
1916.437487,888.247130,-73085.510509,1480.411884
1916.440010,-5329.482782,-73391.948708,-444.123565
1916.442532,-19097.313304,-72779.072310,-2072.576638
1916.445054,10214.842000,-75383.797003,-3701.029710
1916.447576,-6661.853478,-76149.892501,-2072.576638
1916.450099,-4589.276840,-72932.291410,3552.988522
1916.452621,148.041188,-74311.263306,296.082377
1916.455143,-15988.448347,-74158.044206,-148.041188
1916.457665,-0.000000,-75077.358804,-5921.647536
1916.460187,-9770.718434,-74004.825107,-4441.235652
1916.462710,-5477.523971,-72472.634111,-740.205942
1916.465232,-12139.377449,-74924.139704,-2812.782580
1916.467754,-5477.523971,-74617.701505,-2664.741391
1916.470276,-8586.388927,-74924.139704,-5477.523971
1916.472799,-18357.107362,-74004.825107,2664.741391
1916.475321,21465.972318,-75077.358804,3256.906145
1916.477843,-17912.983796,-73391.948708,-8142.265362
1916.480365,-33753.390955,-71400.100414,-7698.141797
1916.482887,23094.425390,-74924.139704,1184.329507
1916.485410,-1036.288319,-76456.330700,-5329.482782
1916.487932,-12139.377449,-74464.482406,-6809.894666
1916.490454,5477.523971,-75996.673402,-8290.306550
1916.492976,-16136.489536,-72932.291410,-6217.729913
1916.495499,2812.782580,-74464.482406,-5033.400406
1916.498021,-6069.688724,-73698.386908,-1480.411884
1916.500562,-2220.617826,-74617.701505,-1184.329507
1916.503104,1332.370696,-75537.016103,1480.411884
1916.505646,-1332.370696,-74004.825107,3997.112087
1916.508188,-14211.954086,-75996.673402,-7550.100608
1916.510729,-9474.636058,-73391.948708,-5625.565159
1916.513271,2812.782580,-73545.167808,-5329.482782
1916.515813,444.123565,-71859.757712,-4293.194464
1916.518354,12583.501014,-73851.606007,6069.688724
1916.520896,-2960.823768,-74464.482406,7846.182985
1916.523438,21910.095883,-75230.577904,10955.047942
1916.525979,-4145.153275,-76149.892501,15100.201217
1916.528521,5625.565159,-75383.797003,4737.318029
1916.531063,-7105.977043,-75690.235202,444.123565
1916.533604,7254.018232,-73085.510509,-444.123565
1916.536146,13027.624579,-71246.881314,4145.153275
1916.538688,9770.718434,-72932.291410,7550.100608
1916.541229,-2220.617826,-75537.016103,6513.812290
1916.543771,1480.411884,-76609.549800,6069.688724
1916.546313,-6661.853478,-75230.577904,5181.441594
1916.548854,14656.077652,-73391.948708,6365.771101
1916.551396,15396.283594,-72319.415011,3108.864956
1916.553938,1480.411884,-74924.139704,4737.318029
1916.556479,1332.370696,-74311.263306,14211.954086
1916.559021,14952.160028,-75996.673402,5033.400406
1916.561563,-4737.318029,-73085.510509,3552.988522
1916.564105,8882.471304,-75230.577904,-4145.153275
1916.566646,296.082377,-71859.757712,2368.659014
1916.569188,24870.919651,-74617.701505,10066.800811
1916.571730,-0.000000,-74924.139704,8734.430116
1916.574271,-1480.411884,-74004.825107,9770.718434
1916.576813,5477.523971,-74924.139704,2960.823768
1916.579355,1184.329507,-73391.948708,1036.288319
1916.581896,9030.512492,-74311.263306,1924.535449
1916.584438,2960.823768,-72166.195912,3256.906145
1916.586980,9178.553681,-72166.195912,8290.306550
1916.589521,7550.100608,-73698.386908,9326.594869
1916.592063,-3552.988522,-74770.920605,7402.059420
1916.594605,296.082377,-76762.768900,3108.864956
1916.597146,3701.029710,-75230.577904,888.247130
1916.599688,9474.636058,-72779.072310,5477.523971
1916.602172,12731.542202,-73545.167808,592.164754
1916.604655,-28719.990550,-73851.606007,-3404.947333
1916.607139,8142.265362,-74464.482406,-7105.977043
1916.609623,-21910.095883,-73238.729609,-1628.453072
1916.612107,2664.741391,-72166.195912,-296.082377
1916.614590,-592.164754,-75690.235202,-6513.812290
1916.617074,-10510.924376,-74770.920605,-2812.782580
1916.619558,7254.018232,-74924.139704,-740.205942
1916.622041,-15396.283594,-73545.167808,740.205942
1916.624525,4737.318029,-74924.139704,592.164754
1916.627009,-11547.212695,-75843.454302,-3701.029710
1916.629492,-10510.924376,-73391.948708,-4145.153275
1916.631976,2072.576638,-72319.415011,-6217.729913
1916.634460,-8586.388927,-71246.881314,-3997.112087
1916.636944,-3997.112087,-75996.673402,1628.453072
1916.639427,-20873.807564,-74464.482406,1184.329507
1916.641911,15100.201217,-73085.510509,7846.182985
1916.644395,-24870.919651,-77222.426198,-6513.812290
1916.646878,-27683.702231,-72625.853210,4885.359217
1916.649362,35233.802839,-74770.920605,8734.430116
1916.651846,-41895.656317,-72166.195912,-4737.318029
1916.654330,6069.688724,-74464.482406,-592.164754
1916.656813,-14804.118840,-77069.207099,-7994.224174
1916.659297,-12139.377449,-72625.853210,-7402.059420
1916.661781,1924.535449,-74617.701505,-7254.018232
1916.664264,-14656.077652,-72932.291410,-888.247130
1916.666748,-2072.576638,-74004.825107,-1628.453072
1916.669232,1628.453072,-75996.673402,2072.576638
1916.671715,2220.617826,-75690.235202,3997.112087
1916.674199,-18949.272115,-75690.235202,-5033.400406
1916.676683,-1332.370696,-74924.139704,-2960.823768
1916.679167,-11547.212695,-74464.482406,-4145.153275
1916.681650,7254.018232,-71246.881314,-592.164754
1916.684134,1184.329507,-73545.167808,-1776.494261
1916.686618,7698.141797,-74158.044206,7994.224174
1916.689101,9770.718434,-75230.577904,7105.977043
1916.691585,6957.935855,-75690.235202,16728.654289
1916.694069,3256.906145,-75996.673402,8734.430116
1916.696552,-4737.318029,-74770.920605,3256.906145
1916.699036,148.041188,-74158.044206,296.082377
1916.701550,10510.924376,-71706.538613,1184.329507
1916.704063,9918.759623,-71246.881314,6069.688724
1916.706576,12139.377449,-74464.482406,9030.512492
1916.709090,-3849.070898,-75843.454302,7402.059420
1916.711603,4145.153275,-75843.454302,6957.935855
1916.714117,-1628.453072,-75383.797003,6217.729913
1916.716630,22058.137072,-74617.701505,5773.606348
1916.719144,17320.819043,-72779.072310,-0.000000
1916.721657,13323.706956,-73238.729609,11399.171507
1916.724171,-13619.789333,-74770.920605,-13471.748144
1916.726684,-10807.006753,-72012.976812,16136.489536
1916.729197,62325.340316,-76149.892501,3404.947333
1916.731711,-57291.939911,-73085.510509,-5625.565159
1916.734224,60992.969621,-72472.634111,14063.912898
1916.736738,-38490.708984,-71706.538613,4145.153275
1916.739251,18949.272115,-70940.443115,10362.883188
1916.741765,26351.331535,-78141.740796,7254.018232
1916.744278,-17172.777854,-75690.235202,5329.482782
1916.746791,24722.878463,-75077.358804,2220.617826
1916.749305,5921.647536,-72012.976812,3701.029710
1916.751818,8586.388927,-70634.004916,10807.006753
1916.754332,6069.688724,-74158.044206,10955.047942
1916.756845,-8734.430116,-74924.139704,5477.523971
1916.759359,-2664.741391,-77682.083497,-148.041188
1916.761872,17616.901420,-74158.044206,7698.141797
1916.764385,7550.100608,-72932.291410,2516.700203
1916.766899,-4293.194464,-72779.072310,3108.864956
1916.769412,-14359.995275,-75996.673402,-4885.359217
1916.771926,-5477.523971,-74770.920605,1776.494261
1916.774439,-2368.659014,-73391.948708,-2812.782580
1916.776953,-12435.459826,-73545.167808,-5329.482782
1916.779466,4441.235652,-74770.920605,-2664.741391
1916.781980,-1480.411884,-74924.139704,-1332.370696
1916.784493,-5033.400406,-73085.510509,3701.029710
1916.787006,592.164754,-75077.358804,3404.947333
1916.789520,-11547.212695,-75690.235202,-888.247130
1916.792033,-1924.535449,-75996.673402,-5477.523971
1916.794547,-11695.253884,-73238.729609,-4441.235652
1916.797060,2812.782580,-70940.443115,-3552.988522
1916.799574,-1776.494261,-74770.920605,1332.370696
1916.802110,-7994.224174,-74617.701505,3404.947333
1916.804647,23094.425390,-72779.072310,5033.400406
1916.807184,-42043.697506,-77835.302597,-14063.912898
1916.809721,18801.230927,-73698.386908,15544.324782
1916.812257,16284.530724,-75077.358804,-5773.606348
1916.814794,-60696.887244,-72166.195912,-5773.606348
1916.817331,17024.736666,-74770.920605,-2368.659014
1916.819867,-18949.272115,-76915.987999,-7698.141797
1916.822404,-5033.400406,-74158.044206,-6365.771101
1916.824941,-1332.370696,-74617.701505,-6217.729913
1916.827478,-11843.295072,-71246.881314,2812.782580
1916.830014,4293.194464,-74004.825107,-4145.153275
1916.832551,-8586.388927,-75383.797003,5329.482782
1916.835088,2072.576638,-76149.892501,4441.235652
1916.837625,-13175.665768,-77835.302597,-5625.565159
1916.840161,-5773.606348,-73851.606007,-4145.153275
1916.842698,1036.288319,-73238.729609,-5477.523971
1916.845235,4441.235652,-69561.471218,-1332.370696
1916.847772,-2072.576638,-73391.948708,-2516.700203
1916.850308,4145.153275,-73391.948708,6809.894666
1916.852845,26647.413912,-75996.673402,10658.965565
1916.855382,-11399.171507,-76149.892501,17172.777854
1916.857919,13471.748144,-75230.577904,6661.853478
1916.860455,-10955.047942,-75996.673402,2664.741391
1916.862992,6809.894666,-72625.853210,-1628.453072
1916.865529,9326.594869,-71706.538613,592.164754
1916.868065,9030.512492,-70634.004916,7254.018232
1916.870602,13175.665768,-75077.358804,9770.718434
1916.873139,-3552.988522,-75537.016103,3849.070898
1916.875676,-4293.194464,-74924.139704,5773.606348
1916.878212,592.164754,-76456.330700,6661.853478
1916.880749,8882.471304,-72319.415011,-1036.288319
1916.883286,21317.931130,-72625.853210,-2368.659014
1916.885823,-21169.889941,-74158.044206,-5625.565159
1916.888359,-1036.288319,-73391.948708,13767.830521
1916.890896,35233.802839,-77835.302597,-4441.235652
1916.893433,-34345.555709,-72012.976812,-5329.482782
1916.895970,56403.692780,-74464.482406,12287.418637
1916.898506,-32421.020260,-71859.757712,7105.977043
1916.901043,29756.278868,-70787.224015,8142.265362
1916.903596,-12583.501014,-75996.673402,3701.029710
1916.906148,888.247130,-75383.797003,7105.977043
1916.908701,26795.455100,-75996.673402,1628.453072
1916.911253,4145.153275,-71706.538613,7105.977043
1916.913806,15248.242405,-71859.757712,12287.418637
1916.916358,-3552.988522,-73851.606007,10066.800811
1916.918911,-3256.906145,-75230.577904,740.205942
1916.921463,-1776.494261,-77222.426198,-2960.823768
1916.924016,17024.736666,-73545.167808,5773.606348
1916.926568,15544.324782,-73391.948708,2516.700203
1916.929121,-26499.372724,-74004.825107,2220.617826
1916.931673,1776.494261,-75383.797003,-4589.276840
1916.934226,-22058.137072,-73085.510509,-2664.741391
1916.936778,11547.212695,-71859.757712,-4145.153275
1916.939331,-19393.395680,-74617.701505,-6513.812290
1916.941883,5033.400406,-74004.825107,-2960.823768
1916.944436,-2072.576638,-73698.386908,-592.164754
1916.946988,-16876.695478,-73391.948708,5329.482782
1916.949541,7402.059420,-75230.577904,3256.906145
1916.952093,-16284.530724,-77069.207099,-1776.494261
1916.954646,-4441.235652,-75077.358804,-4885.359217
1916.957198,444.123565,-72472.634111,-4589.276840
1916.959751,-2368.659014,-70940.443115,-4145.153275
1916.962303,4145.153275,-71400.100414,-5181.441594
1916.964856,21021.848753,-73545.167808,7105.977043
1916.967408,-26055.249158,-75690.235202,-9918.759623
1916.969961,16432.571912,-76915.987999,740.205942
1916.972513,-18949.272115,-74004.825107,-9918.759623
1916.975066,-8586.388927,-72932.291410,3701.029710
1916.977618,-3108.864956,-75077.358804,-4885.359217
1916.980171,-24722.878463,-73238.729609,-7846.182985
1916.982723,14656.077652,-75690.235202,-13767.830521
1916.985276,-13619.789333,-74004.825107,-11251.130318
1916.987828,-6513.812290,-72932.291410,592.164754
1916.990381,5033.400406,-73698.386908,2960.823768
1916.992933,-3849.070898,-72166.195912,6069.688724
1916.995486,740.205942,-75996.673402,3108.864956
1916.998038,-14804.118840,-77222.426198,-6513.812290
1917.000591,-9474.636058,-76303.111601,-6809.894666
1917.003143,9474.636058,-72472.634111,-4885.359217
1917.005708,-8142.265362,-69714.690318,888.247130
1917.008273,11399.171507,-73085.510509,6957.935855
1917.010838,-1924.535449,-73391.948708,6513.812290
1917.013402,20577.725188,-76149.892501,9474.636058
1917.015967,-4737.318029,-77375.645298,11103.089130
1917.018532,5329.482782,-75230.577904,6661.853478
1917.021096,-5625.565159,-74311.263306,3108.864956
1917.023661,4145.153275,-71859.757712,-592.164754
1917.026226,13619.789333,-71400.100414,1924.535449
1917.028790,6069.688724,-72779.072310,7698.141797
1917.031355,10807.006753,-74311.263306,8586.388927
1917.033920,-6365.771101,-76149.892501,6957.935855
1917.036484,-2664.741391,-74004.825107,8438.347739
1917.039049,-7698.141797,-74770.920605,6217.729913
1917.041614,11251.130318,-72932.291410,-888.247130
1917.044178,-9178.553681,-73085.510509,-5033.400406
1917.046743,9474.636058,-74158.044206,11103.089130
1917.049308,11399.171507,-75843.454302,9474.636058
1917.051872,592.164754,-74770.920605,-4145.153275
1917.054437,6957.935855,-75077.358804,7402.059420
1917.057002,22502.260637,-74311.263306,11103.089130
1917.059567,-2072.576638,-73391.948708,11991.336260
1917.062131,1184.329507,-74311.263306,11547.212695
1917.064696,2516.700203,-76456.330700,8142.265362
1917.067261,1036.288319,-75843.454302,4145.153275
1917.069825,17320.819043,-73085.510509,2960.823768
1917.072390,11399.171507,-71859.757712,7550.100608
1917.074955,2072.576638,-72779.072310,10214.842000
1917.077519,-7994.224174,-74464.482406,2516.700203
1917.080084,-1184.329507,-75996.673402,-1480.411884
1917.082649,19393.395680,-73698.386908,7994.224174
1917.085213,9030.512492,-74464.482406,1924.535449
1917.087778,-10214.842000,-73545.167808,4293.194464
1917.090343,-9178.553681,-76915.987999,-6957.935855
1917.092907,-12879.583391,-73391.948708,1776.494261
1917.095472,3404.947333,-73085.510509,-1184.329507
1917.098037,-13175.665768,-75077.358804,-8438.347739
1917.100601,-740.205942,-74004.825107,-2664.741391
1917.103166,1036.288319,-74464.482406,-4293.194464
1917.105731,-11695.253884,-71553.319513,3849.070898
1917.108305,7846.182985,-74770.920605,3997.112087
1917.110879,-17024.736666,-75996.673402,-444.123565
1917.113453,-0.000000,-75383.797003,-6513.812290
1917.116026,-5477.523971,-72012.976812,-10510.924376
1917.118600,-10955.047942,-71706.538613,-2368.659014
1917.121174,-1184.329507,-73545.167808,-6957.935855
1917.123748,-20133.601622,-72012.976812,4145.153275
1917.126322,15988.448347,-74924.139704,4441.235652
1917.128896,-18949.272115,-76915.987999,-12583.501014
1917.131470,-12879.583391,-73698.386908,-3701.029710
1917.134044,12287.418637,-75996.673402,1924.535449
1917.136618,-28275.866984,-72166.195912,-4589.276840
1917.139192,-6957.935855,-73085.510509,-3108.864956
1917.141766,-6809.894666,-74924.139704,-11991.336260
1917.144340,-7698.141797,-72472.634111,-6217.729913
1917.146914,-1628.453072,-74770.920605,-5181.441594
1917.149488,-4293.194464,-72472.634111,8734.430116
1917.152061,5921.647536,-73851.606007,6069.688724
1917.154635,-15396.283594,-77222.426198,-2960.823768
1917.157209,-8734.430116,-76609.549800,-7105.977043
1917.159783,-3701.029710,-75843.454302,-9326.594869
1917.162357,-444.123565,-71553.319513,-3701.029710
1917.164931,-740.205942,-71706.538613,2664.741391
1917.167505,11399.171507,-72319.415011,9326.594869
1917.170079,4441.235652,-74770.920605,8586.388927
1917.172653,9770.718434,-76149.892501,12287.418637
1917.175227,-1036.288319,-76915.987999,-148.041188
1917.177801,-4737.318029,-75383.797003,2812.782580
1917.180375,5181.441594,-73238.729609,-592.164754
1917.182949,5773.606348,-70327.566716,2960.823768
1917.185523,16284.530724,-71706.538613,6661.853478
1917.188096,7105.977043,-74617.701505,8734.430116
1917.190670,888.247130,-75537.016103,6365.771101
1917.193244,6069.688724,-74464.482406,6513.812290
1917.195818,4145.153275,-73085.510509,4441.235652
1917.198392,17172.777854,-72319.415011,3552.988522
1917.200966,18505.148550,-73391.948708,-3997.112087
1917.203540,-15692.365970,-73391.948708,2516.700203
1917.206114,24426.796086,-75843.454302,4145.153275
1917.208688,-24870.919651,-75383.797003,-7254.018232
1917.211267,2220.617826,-71246.881314,6069.688724
1917.213847,26203.290347,-72166.195912,8142.265362
1917.216426,-13767.830521,-72166.195912,12435.459826
1917.219006,25167.002028,-75383.797003,7550.100608
1917.221585,-16284.530724,-75383.797003,1480.411884
1917.224165,16876.695478,-76149.892501,5033.400406
1917.226744,2220.617826,-74311.263306,6069.688724
1917.229324,16432.571912,-70787.224015,12139.377449
1917.231903,148.041188,-73698.386908,7550.100608
1917.234483,-10955.047942,-74464.482406,2220.617826
1917.237062,13619.789333,-74617.701505,148.041188
1917.239642,6513.812290,-74617.701505,5329.482782
1917.242221,17616.901420,-74158.044206,3701.029710
1917.244800,-28275.866984,-76915.987999,3849.070898
1917.247380,10066.800811,-74924.139704,-592.164754
1917.249959,-16284.530724,-75230.577904,-1480.411884
1917.252539,-1480.411884,-72319.415011,-2812.782580
1917.255118,2072.576638,-75383.797003,-10510.924376
1917.257698,-16432.571912,-74158.044206,-5033.400406
1917.260277,6513.812290,-73238.729609,740.205942
1917.262857,-15692.365970,-73085.510509,6513.812290
1917.265436,4589.276840,-73851.606007,4737.318029
1917.268016,-10214.842000,-77222.426198,-1776.494261
1917.270595,-1628.453072,-75077.358804,-6069.688724
1917.273175,1776.494261,-74770.920605,-5625.565159
1917.275754,2960.823768,-71246.881314,-8142.265362
1917.278334,-5773.606348,-71859.757712,-6217.729913
1917.280913,-1036.288319,-73085.510509,6365.771101
1917.283493,3849.070898,-74924.139704,148.041188
1917.286072,-2516.700203,-76149.892501,-4737.318029
1917.288652,-11547.212695,-73391.948708,-3701.029710
1917.291231,-7105.977043,-73545.167808,-5921.647536
1917.293810,-14211.954086,-74464.482406,-4441.235652
1917.296390,-592.164754,-74924.139704,-5329.482782
1917.298969,-11399.171507,-75383.797003,-4589.276840
1917.301549,2072.576638,-74924.139704,-1184.329507
1917.304128,-2368.659014,-73851.606007,592.164754
1917.306708,-11991.336260,-73545.167808,6513.812290
1917.309287,-3552.988522,-74617.701505,-5477.523971
1917.311867,-14656.077652,-75996.673402,-7994.224174
1917.314451,3108.864956,-75230.577904,-7846.182985
1917.317035,1628.453072,-73545.167808,-3256.906145
1917.319619,-888.247130,-72166.195912,-1776.494261
1917.322203,6365.771101,-71553.319513,10362.883188
1917.324787,10214.842000,-73545.167808,9178.553681
1917.327371,-1184.329507,-76149.892501,12731.542202
1917.329955,8438.347739,-76609.549800,1628.453072
1917.332539,-10807.006753,-76609.549800,296.082377
1917.335122,7402.059420,-73238.729609,-148.041188
1917.337706,5033.400406,-70940.443115,2220.617826
1917.340290,15248.242405,-70480.785816,6809.894666
1917.342874,8586.388927,-74158.044206,9030.512492
1917.345458,-2664.741391,-75843.454302,7402.059420
1917.348042,-5477.523971,-75690.235202,5921.647536
1917.350626,-4737.318029,-72779.072310,1332.370696
1917.353210,18801.230927,-72779.072310,-740.205942
1917.355794,-26203.290347,-73698.386908,296.082377
1917.358378,35085.761651,-73085.510509,17320.819043
1917.360962,-1036.288319,-78141.740796,-4885.359217
1917.363546,-41451.532752,-77222.426198,-888.247130
1917.366130,47373.180288,-75843.454302,12731.542202
1917.368714,-17912.983796,-73085.510509,10362.883188
1917.371298,27239.578666,-72012.976812,18209.066173
1917.373882,-296.082377,-76456.330700,6661.853478
1917.376466,-2516.700203,-75383.797003,7994.224174
1917.379050,20725.766376,-77069.207099,1480.411884
1917.381634,1184.329507,-72932.291410,9326.594869
1917.384218,3108.864956,-72625.853210,6217.729913
1917.386802,-4145.153275,-73698.386908,2664.741391
1917.389386,6809.894666,-73085.510509,4145.153275
1917.391970,10214.842000,-74770.920605,5921.647536
1917.394554,14063.912898,-74004.825107,2368.659014
1917.397140,-22946.384202,-76609.549800,2960.823768
1917.399727,3256.906145,-75230.577904,-1480.411884
1917.402313,-16136.489536,-74158.044206,-1036.288319
1917.404900,-592.164754,-72779.072310,-592.164754
1917.407486,-5033.400406,-75383.797003,-9770.718434
1917.410072,-5921.647536,-74158.044206,-4293.194464
1917.412659,-2220.617826,-74770.920605,-3404.947333
1917.415245,-11103.089130,-72166.195912,5329.482782
1917.417832,6513.812290,-74617.701505,4589.276840
1917.420418,-13619.789333,-77375.645298,-740.205942
1917.423005,-4737.318029,-76303.111601,-6957.935855
1917.425591,-7254.018232,-76149.892501,-4441.235652
1917.428178,-10658.965565,-73698.386908,-2960.823768
1917.430764,8882.471304,-73391.948708,14952.160028
1917.433350,9918.759623,-73238.729609,888.247130
1917.435937,-16580.613101,-74617.701505,-6365.771101
1917.438523,-2812.782580,-76149.892501,-5921.647536
1917.441110,-148.041188,-74158.044206,-3404.947333
1917.443696,-14063.912898,-72779.072310,-7550.100608
1917.446283,-10658.965565,-73391.948708,-4885.359217
1917.448869,888.247130,-74311.263306,-7550.100608
1917.451456,-15100.201217,-74924.139704,-9622.677246
1917.454042,6513.812290,-74770.920605,-2072.576638
1917.456628,-7254.018232,-74311.263306,4885.359217
1917.459215,-15396.283594,-74158.044206,2220.617826
1917.461801,-2812.782580,-74924.139704,-4293.194464
1917.464388,-12287.418637,-74464.482406,-8142.265362
1917.466974,6661.853478,-73698.386908,-5477.523971
1917.469561,-7254.018232,-72932.291410,-6365.771101
1917.472147,10214.842000,-72779.072310,2960.823768
1917.474734,592.164754,-73238.729609,11547.212695
1917.477320,22058.137072,-73545.167808,17172.777854
1917.479906,-148.041188,-76609.549800,12583.501014
1917.482493,3849.070898,-76149.892501,4441.235652
1917.485079,-3849.070898,-75996.673402,-1924.535449
1917.487666,7994.224174,-72012.976812,-1184.329507
1917.490252,10807.006753,-70940.443115,3701.029710
1917.492839,11399.171507,-73238.729609,12731.542202
1917.495425,5033.400406,-75537.016103,9326.594869
1917.498012,-9770.718434,-77682.083497,9178.553681
1917.500599,2220.617826,-74924.139704,7994.224174
1917.503187,-6217.729913,-75383.797003,4441.235652
1917.505775,27535.661042,-72932.291410,6809.894666
1917.508363,-11695.253884,-72472.634111,2220.617826
1917.510951,15692.365970,-73698.386908,7550.100608
1917.513539,-2664.741391,-79673.931792,-888.247130
1917.516127,-13915.871710,-72932.291410,4737.318029
1917.518715,41007.409187,-72932.291410,15100.201217
1917.521302,-9178.553681,-72319.415011,14359.995275
1917.523890,15988.448347,-73085.510509,14211.954086
1917.526478,7698.141797,-77835.302597,6069.688724
1917.529066,3552.988522,-74464.482406,4589.276840
1917.531654,13767.830521,-74770.920605,3256.906145
1917.534242,-2960.823768,-73391.948708,7402.059420
1917.536830,296.082377,-72779.072310,2960.823768
1917.539418,11399.171507,-73085.510509,3849.070898
1917.542005,5181.441594,-72472.634111,7402.059420
1917.544593,13323.706956,-75996.673402,1332.370696
1917.547181,-27387.619854,-76762.768900,148.041188
1917.549769,9030.512492,-75690.235202,-2812.782580
1917.552357,-21465.972318,-73085.510509,-1776.494261
1917.554945,-592.164754,-71706.538613,-2368.659014
1917.557533,-148.041188,-75690.235202,-12287.418637
1917.560120,-14656.077652,-74924.139704,-6513.812290
1917.562708,5773.606348,-74464.482406,-1332.370696
1917.565296,-15544.324782,-73085.510509,6661.853478
1917.567884,11399.171507,-74004.825107,4589.276840
1917.570472,-19245.354492,-77222.426198,-296.082377
1917.573060,2516.700203,-75996.673402,-3849.070898
1917.575648,-10066.800811,-75690.235202,-4885.359217
1917.578236,-21169.889941,-72472.634111,-2368.659014
1917.580823,14063.912898,-70940.443115,6661.853478
1917.583411,-10214.842000,-73238.729609,2960.823768
1917.585999,-5181.441594,-73698.386908,-7254.018232
1917.588587,-12435.459826,-77069.207099,-2960.823768
1917.591175,-16284.530724,-76303.111601,-4441.235652
1917.593763,-6809.894666,-72625.853210,-7402.059420
1917.596351,-2368.659014,-73085.510509,-4145.153275
1917.598939,-7254.018232,-74464.482406,-8734.430116
1917.601526,2220.617826,-74770.920605,-4293.194464
1917.604115,-4589.276840,-75537.016103,1924.535449
1917.606704,-8142.265362,-74924.139704,6217.729913
1917.609293,-3997.112087,-75383.797003,-3256.906145
1917.611882,-16432.571912,-73545.167808,-6809.894666
1917.614471,9770.718434,-72319.415011,-3552.988522
1917.617059,-6957.935855,-74311.263306,-2516.700203
1917.619648,8142.265362,-74464.482406,592.164754
1917.622237,-888.247130,-74311.263306,7402.059420
1917.624826,25167.002028,-74158.044206,15248.242405
1917.627415,296.082377,-74004.825107,14656.077652
1917.630004,7254.018232,-74924.139704,3404.947333
1917.632592,-3108.864956,-76149.892501,-740.205942
1917.635181,740.205942,-72166.195912,-888.247130
1917.637770,10807.006753,-71246.881314,1036.288319
1917.640359,12435.459826,-72012.976812,9770.718434
1917.642948,7698.141797,-75230.577904,8586.388927
1917.645537,6661.853478,-75690.235202,7402.059420
1917.648126,5477.523971,-76149.892501,7994.224174
1917.650714,15840.407159,-75230.577904,2368.659014
1917.653303,-4293.194464,-74311.263306,-8438.347739
1917.655892,14508.036463,-69408.252119,10807.006753
1917.658481,592.164754,-74464.482406,-6513.812290
1917.661070,-15840.407159,-73085.510509,-888.247130
1917.663659,30644.525999,-76149.892501,3256.906145
1917.666247,-19541.436869,-74004.825107,9770.718434
1917.668836,10807.006753,-71706.538613,13175.665768
1917.671425,15100.201217,-74311.263306,8734.430116
1917.674014,2220.617826,-74158.044206,8290.306550
1917.676603,15544.324782,-76609.549800,5033.400406
1917.679192,-4145.153275,-74311.263306,5921.647536
1917.681780,-1036.288319,-74617.701505,1332.370696
1917.684369,-888.247130,-73391.948708,2960.823768
1917.686958,23094.425390,-71246.881314,7402.059420
1917.689547,-1480.411884,-74464.482406,3256.906145
1917.692136,444.123565,-75383.797003,5477.523971
1917.694725,-16136.489536,-78754.617194,-8734.430116
1917.697313,-4145.153275,-73545.167808,-444.123565
1917.699902,592.164754,-72932.291410,-2368.659014
1917.702491,-10510.924376,-71093.662214,-3997.112087
1917.705080,7402.059420,-74924.139704,-11547.212695
1917.707668,-15396.283594,-76915.987999,-5329.482782
1917.710256,4737.318029,-72932.291410,3552.988522
1917.712844,-11843.295072,-73545.167808,1924.535449
1917.715432,-1776.494261,-73851.606007,4589.276840
1917.718020,2960.823768,-76915.987999,-3701.029710
1917.720608,-11547.212695,-75383.797003,-2664.741391
1917.723195,7994.224174,-75230.577904,-11695.253884
1917.725783,-20873.807564,-73698.386908,-5921.647536
1917.728371,-1628.453072,-70634.004916,7994.224174
1917.730959,4293.194464,-73851.606007,-9474.636058
1917.733547,-39082.873738,-74924.139704,-6069.688724
1917.736135,9326.594869,-75690.235202,-9326.594869
1917.738723,-30200.402434,-73545.167808,-11547.212695
1917.741311,5033.400406,-72625.853210,-7105.977043
1917.743899,-11399.171507,-73698.386908,-9030.512492
1917.746487,-11695.253884,-74004.825107,-3701.029710
1917.749075,8882.471304,-75077.358804,-1036.288319
1917.751663,-16136.489536,-75077.358804,2664.741391
1917.754251,-3256.906145,-76149.892501,-4441.235652
1917.756839,-13619.789333,-73698.386908,-3701.029710
1917.759427,10658.965565,-71246.881314,-3701.029710
1917.762014,-12287.418637,-73545.167808,-2812.782580
1917.764602,9918.759623,-73698.386908,888.247130
1917.767190,1924.535449,-75077.358804,3997.112087
1917.769778,18061.024985,-74158.044206,12583.501014
1917.772366,8142.265362,-74770.920605,15248.242405
1917.774954,-3849.070898,-75077.358804,5921.647536
1917.777542,-1332.370696,-75843.454302,592.164754
1917.780130,-1184.329507,-73698.386908,-444.123565
1917.782718,11399.171507,-71093.662214,296.082377
1917.785306,10658.965565,-72319.415011,8586.388927
1917.787894,12435.459826,-73851.606007,8438.347739
1917.790482,-8586.388927,-75690.235202,7254.018232
1917.793070,-1480.411884,-74464.482406,5033.400406
1917.795658,3849.070898,-75077.358804,-444.123565
1917.798245,-4589.276840,-74158.044206,-2072.576638
1917.800833,17764.942608,-71093.662214,7550.100608
1917.803421,1036.288319,-73391.948708,4589.276840
1917.806009,4293.194464,-73545.167808,-1628.453072
1917.808597,-1332.370696,-75843.454302,5033.400406
1917.811184,8734.430116,-74464.482406,10362.883188
1917.813771,5477.523971,-72012.976812,13767.830521
1917.816358,12139.377449,-73391.948708,14359.995275
1917.818945,3552.988522,-74311.263306,9622.677246
1917.821532,10214.842000,-74464.482406,5181.441594
1917.824119,-2368.659014,-75537.016103,1480.411884
1917.826706,444.123565,-75383.797003,888.247130
1917.829293,14063.912898,-72932.291410,3552.988522
1917.831880,5033.400406,-71553.319513,11103.089130
1917.834467,13175.665768,-73698.386908,6661.853478
1917.837054,-29608.237680,-76762.768900,1628.453072
1917.839641,5329.482782,-77528.864398,-4293.194464
1917.842228,-11991.336260,-74311.263306,-3256.906145
1917.844815,-2664.741391,-70787.224015,-4293.194464
1917.847402,-1924.535449,-74158.044206,-5921.647536
1917.849989,-10362.883188,-75383.797003,-3997.112087
1917.852576,1628.453072,-74924.139704,-3849.070898
1917.855163,-12731.542202,-73851.606007,3701.029710
1917.857750,6069.688724,-74311.263306,1924.535449
1917.860337,-8882.471304,-75230.577904,1776.494261
1917.862924,-7402.059420,-74158.044206,-5181.441594
1917.865511,-18209.066173,-75537.016103,-2072.576638
1917.868098,5921.647536,-73851.606007,7402.059420
1917.870686,6809.894666,-74464.482406,2220.617826
1917.873273,-5921.647536,-72166.195912,-2664.741391
1917.875860,-6069.688724,-75230.577904,-6365.771101
1917.878447,-11251.130318,-76303.111601,-1184.329507
1917.881034,1184.329507,-73545.167808,-10066.800811
1917.883621,-9030.512492,-73698.386908,-5033.400406
1917.886208,-1480.411884,-73545.167808,-6809.894666
1917.888795,-7402.059420,-73545.167808,-4885.359217
1917.891382,-0.000000,-73698.386908,-1036.288319
1917.893969,-10807.006753,-75843.454302,1332.370696
1917.896556,-10214.842000,-75077.358804,-4145.153275
1917.899143,-6809.894666,-73851.606007,-4145.153275
1917.901730,7105.977043,-71706.538613,-444.123565
1917.904317,-5625.565159,-73085.510509,-1480.411884
1917.906904,6217.729913,-73698.386908,1776.494261
1917.909491,444.123565,-74924.139704,4145.153275
1917.912078,21910.095883,-74770.920605,11251.130318
1917.914664,3701.029710,-74464.482406,16580.613101
1917.917250,1924.535449,-74158.044206,5033.400406
1917.919837,-6513.812290,-75383.797003,1332.370696
1917.922423,2960.823768,-73698.386908,296.082377
1917.925010,12287.418637,-72012.976812,-148.041188
1917.927596,11547.212695,-72319.415011,7698.141797
1917.930182,7402.059420,-74770.920605,8734.430116
1917.932769,-7105.977043,-77222.426198,10510.924376
1917.935355,13323.706956,-75690.235202,6217.729913
1917.937941,14804.118840,-75230.577904,-3552.988522
1917.940528,-13323.706956,-72779.072310,-2664.741391
1917.943114,27239.578666,-69867.909418,10362.883188
1917.945700,-8142.265362,-72319.415011,-1924.535449
1917.948287,5181.441594,-74004.825107,4145.153275
1917.950873,11695.253884,-77222.426198,6217.729913
1917.953459,-4885.359217,-73545.167808,7994.224174
1917.956046,15248.242405,-72932.291410,10510.924376
1917.958632,5625.565159,-74770.920605,12583.501014
1917.961219,12139.377449,-75077.358804,9918.759623
1917.963805,-4737.318029,-76303.111601,4145.153275
1917.966391,-5329.482782,-75383.797003,-2220.617826
1917.968978,3404.947333,-74770.920605,1184.329507
1917.971564,21614.013506,-71553.319513,11991.336260
1917.974150,3552.988522,-72625.853210,7994.224174
1917.976737,-22650.301825,-76303.111601,7105.977043
1917.979323,-3256.906145,-77682.083497,-7105.977043
1917.981909,-17320.819043,-75230.577904,-4885.359217
1917.984496,7846.182985,-72625.853210,-5921.647536
1917.987082,-13027.624579,-72012.976812,-6809.894666
1917.989669,4293.194464,-72319.415011,-5921.647536
1917.992255,-12583.501014,-76149.892501,-5033.400406
1917.994841,-0.000000,-73698.386908,1036.288319
1917.997428,-1628.453072,-75383.797003,2220.617826
1918.000014,296.082377,-75996.673402,4589.276840
1918.002600,8142.265362,-76303.111601,-4589.276840
1918.005187,-12139.377449,-73545.167808,-6069.688724
1918.007773,11399.171507,-74617.701505,-16136.489536
1918.010359,-32272.979071,-73085.510509,592.164754
1918.012946,54479.157331,-71553.319513,8142.265362
1918.015532,-21614.013506,-78448.178995,-2664.741391
1918.018118,-29460.196492,-75996.673402,-2812.782580
1918.020704,23390.507767,-76609.549800,-12287.418637
1918.023289,-42635.862259,-72779.072310,-8290.306550
1918.025875,21910.095883,-73238.729609,-3849.070898
1918.028461,-19837.519246,-73391.948708,-5033.400406
1918.031047,5921.647536,-73391.948708,1480.411884
1918.033632,4885.359217,-76456.330700,-6513.812290
1918.036218,-23686.590144,-75843.454302,-740.205942
1918.038804,6069.688724,-74464.482406,-3701.029710
1918.041389,-2516.700203,-71706.538613,-888.247130
1918.043975,-148.041188,-72319.415011,888.247130
1918.046561,7254.018232,-74311.263306,-148.041188
1918.049147,-2812.782580,-73698.386908,5773.606348
1918.051732,24870.919651,-75230.577904,10807.006753
1918.054318,-4293.194464,-75230.577904,10955.047942
1918.056904,5921.647536,-74158.044206,7994.224174
1918.059490,-6365.771101,-75077.358804,740.205942
1918.062075,2664.741391,-71859.757712,1036.288319
1918.064661,12287.418637,-72932.291410,-592.164754
1918.067247,8734.430116,-72472.634111,7105.977043
1918.069833,15544.324782,-73391.948708,7105.977043
1918.072418,-8734.430116,-75996.673402,11695.253884
1918.075004,-2960.823768,-77528.864398,15100.201217
1918.077590,17172.777854,-76915.987999,3552.988522
1918.080175,2220.617826,-73238.729609,-3404.947333
1918.082761,2072.576638,-71093.662214,13027.624579
1918.085347,31828.855506,-72779.072310,9474.636058
1918.087933,-10658.965565,-75537.016103,7254.018232
1918.090518,9770.718434,-75537.016103,7846.182985
1918.093104,12583.501014,-74617.701505,7105.977043
1918.095690,11399.171507,-72166.195912,15988.448347
1918.098276,13767.830521,-73545.167808,9178.553681
1918.100861,-3997.112087,-74004.825107,7550.100608
1918.103447,-2516.700203,-76149.892501,-592.164754
1918.106033,-4885.359217,-74617.701505,-740.205942
1918.108619,20725.766376,-72166.195912,2664.741391
1918.111204,2960.823768,-72779.072310,6217.729913
1918.113790,5625.565159,-72625.853210,9622.677246
1918.116376,-23390.507767,-77835.302597,-5625.565159
1918.118961,-3404.947333,-75230.577904,-2072.576638
1918.121546,-3256.906145,-75996.673402,-3997.112087
1918.124129,-6217.729913,-71706.538613,-5329.482782
1918.126713,2664.741391,-73391.948708,-8882.471304
1918.129297,-14508.036463,-73698.386908,-6069.688724
1918.131881,-3849.070898,-73391.948708,592.164754
1918.134465,-4885.359217,-75230.577904,6513.812290
1918.137049,-3256.906145,-75230.577904,1480.411884
1918.139632,-17320.819043,-75230.577904,-1776.494261
1918.142216,-1480.411884,-73851.606007,-9178.553681
1918.144800,-25611.125593,-72932.291410,-11103.089130
1918.147384,6661.853478,-73698.386908,-888.247130
1918.149968,17172.777854,-72472.634111,8882.471304
1918.152552,-14359.995275,-75843.454302,-2664.741391
1918.155135,-17616.901420,-75996.673402,-9474.636058
1918.157719,-6513.812290,-76303.111601,-9178.553681
1918.160303,-18949.272115,-73085.510509,-11695.253884
1918.162887,4293.194464,-70940.443115,-4737.318029
1918.165471,-3552.988522,-73085.510509,-4441.235652
1918.168055,-9030.512492,-75077.358804,1332.370696
1918.170638,-13175.665768,-76456.330700,-11695.253884
1918.173222,-12583.501014,-75537.016103,-1924.535449
1918.175806,-296.082377,-74617.701505,-3256.906145
1918.178390,-148.041188,-70787.224015,2072.576638
1918.180974,-4441.235652,-72319.415011,-1628.453072
1918.183558,5773.606348,-73698.386908,1776.494261
1918.186141,1628.453072,-75383.797003,3256.906145
1918.188725,14656.077652,-75077.358804,12879.583391
1918.191309,-0.000000,-75690.235202,13471.748144
1918.193893,7550.100608,-74464.482406,9918.759623
1918.196477,-2664.741391,-74617.701505,1184.329507
1918.199061,2812.782580,-73545.167808,-0.000000
1918.201644,13619.789333,-72779.072310,592.164754
1918.204228,7550.100608,-73698.386908,8586.388927
1918.206812,3997.112087,-72319.415011,6809.894666
1918.209396,-6661.853478,-75383.797003,9474.636058
1918.211980,-9326.594869,-74004.825107,3256.906145
1918.214564,4441.235652,-74004.825107,-740.205942
1918.217147,23094.425390,-72779.072310,148.041188
1918.219731,-9178.553681,-69408.252119,-1480.411884
1918.222315,20725.766376,-73698.386908,13323.706956
1918.224897,11991.336260,-76149.892501,5477.523971
1918.227480,-11843.295072,-75996.673402,11103.089130
1918.230062,21169.889941,-73238.729609,10214.842000
1918.232645,-444.123565,-72779.072310,10066.800811
1918.235227,10955.047942,-73238.729609,10362.883188
1918.237809,-5773.606348,-75230.577904,3108.864956
1918.240392,-3552.988522,-75077.358804,148.041188
1918.242974,4737.318029,-75077.358804,-888.247130
1918.245557,8142.265362,-71706.538613,8882.471304
1918.248139,16136.489536,-72472.634111,9770.718434
1918.250722,-29756.278868,-76149.892501,4885.359217
1918.253304,4737.318029,-76609.549800,-1776.494261
1918.255886,-19837.519246,-75230.577904,-6513.812290
1918.258469,8290.306550,-72779.072310,-4441.235652
1918.261051,-8586.388927,-73698.386908,-10066.800811
1918.263634,-14508.036463,-73545.167808,-2812.782580
1918.266216,1776.494261,-74004.825107,-1184.329507
1918.268798,-13915.871710,-73545.167808,3997.112087
1918.271381,9030.512492,-75690.235202,4589.276840
1918.273963,-148.041188,-76149.892501,1332.370696
1918.276546,-7105.977043,-75996.673402,-1332.370696
1918.279128,-17616.901420,-74464.482406,-3552.988522
1918.281710,2960.823768,-72166.195912,-4145.153275
1918.284293,10807.006753,-72166.195912,5773.606348
1918.286875,-7698.141797,-74464.482406,-4441.235652
1918.289458,-10214.842000,-75690.235202,-6957.935855
1918.292040,-11843.295072,-75230.577904,-7846.182985
1918.294622,-16728.654289,-73545.167808,-12731.542202
1918.297205,-1628.453072,-70787.224015,-6365.771101
1918.299787,592.164754,-72319.415011,-5033.400406
1918.302370,-11103.089130,-74617.701505,-1480.411884
1918.304952,-14656.077652,-76303.111601,-10510.924376
1918.307534,-13027.624579,-75996.673402,-4885.359217
1918.310117,-2960.823768,-74770.920605,-740.205942
1918.312699,6069.688724,-71859.757712,2664.741391
1918.315282,-6513.812290,-70787.224015,-2516.700203
1918.317864,7994.224174,-73545.167808,3108.864956
1918.320446,6513.812290,-75996.673402,3849.070898
1918.323029,10955.047942,-75537.016103,10658.965565
1918.325611,6069.688724,-75996.673402,9326.594869
1918.328191,-1036.288319,-73698.386908,9770.718434
1918.330772,3849.070898,-73851.606007,1776.494261
1918.333352,-2368.659014,-72625.853210,148.041188
1918.335932,16284.530724,-73391.948708,1036.288319
1918.338512,6069.688724,-73391.948708,7846.182985
1918.341092,12139.377449,-75383.797003,9622.677246
1918.343672,11251.130318,-74464.482406,5329.482782
1918.346252,444.123565,-75996.673402,-3404.947333
1918.348833,-4737.318029,-76762.768900,592.164754
1918.351413,27091.537477,-73545.167808,15100.201217
1918.353993,6957.935855,-74770.920605,8290.306550
1918.356573,-7254.018232,-73851.606007,6217.729913
1918.359153,17468.860231,-75537.016103,10214.842000
1918.361733,2960.823768,-75996.673402,10066.800811
1918.364314,8734.430116,-73851.606007,15544.324782
1918.366894,16876.695478,-73698.386908,14211.954086
1918.369474,-4145.153275,-73391.948708,8882.471304
1918.372054,1332.370696,-75077.358804,-2516.700203
1918.374634,-8438.347739,-75077.358804,-1924.535449
1918.377214,21762.054695,-72472.634111,3404.947333
1918.379794,6661.853478,-74158.044206,5181.441594
1918.382375,-7698.141797,-73085.510509,10955.047942
1918.384955,-11103.089130,-77069.207099,-3256.906145
1918.387535,-11399.171507,-74004.825107,-740.205942
1918.390115,2220.617826,-74617.701505,-4145.153275
1918.392695,-10214.842000,-73391.948708,-8586.388927
1918.395275,5477.523971,-73391.948708,-8734.430116
1918.397856,-7994.224174,-74924.139704,-2960.823768
1918.400436,-9178.553681,-72625.853210,1480.411884
1918.403016,2812.782580,-73698.386908,5181.441594
1918.405596,-11251.130318,-76915.987999,2812.782580
1918.408176,-5033.400406,-76149.892501,-2072.576638
1918.410756,-8734.430116,-76149.892501,296.082377
1918.413336,2664.741391,-74464.482406,-5921.647536
1918.415917,-740.205942,-72319.415011,4293.194464
1918.418497,-2664.741391,-71400.100414,-7994.224174
1918.421077,-4737.318029,-77988.521696,-2220.617826
1918.423657,-1924.535449,-77682.083497,-3997.112087
1918.426237,-9474.636058,-74158.044206,-10955.047942
1918.428817,148.041188,-72625.853210,-9178.553681
1918.431396,-1332.370696,-72166.195912,-5181.441594
1918.433976,-6069.688724,-73545.167808,888.247130
1918.436555,-16432.571912,-76915.987999,-10807.006753
1918.439134,-11991.336260,-75996.673402,-5181.441594
1918.441713,-2220.617826,-75996.673402,-3997.112087
1918.444292,592.164754,-72012.976812,3849.070898
1918.446871,1480.411884,-71553.319513,-444.123565
1918.449450,5181.441594,-72319.415011,3256.906145
1918.452029,5181.441594,-75077.358804,5033.400406
1918.454608,9622.677246,-75843.454302,8142.265362
1918.457187,888.247130,-75690.235202,6809.894666
1918.459766,-444.123565,-74617.701505,8142.265362
1918.462345,2960.823768,-73238.729609,4441.235652
1918.464924,-148.041188,-72166.195912,888.247130
1918.467503,15840.407159,-72932.291410,1628.453072
1918.470083,5033.400406,-75077.358804,6809.894666
1918.472662,-1332.370696,-73085.510509,5181.441594
1918.475241,-592.164754,-73698.386908,11103.089130
1918.477820,7698.141797,-75996.673402,6217.729913
1918.480399,-12435.459826,-74464.482406,-5181.441594
1918.482978,1332.370696,-71706.538613,10510.924376
1918.485557,22798.343014,-70021.128517,7254.018232
1918.488136,-14804.118840,-72472.634111,5773.606348
1918.490715,17616.901420,-75537.016103,10510.924376
1918.493294,15248.242405,-75996.673402,7846.182985
1918.495873,9030.512492,-73391.948708,11695.253884
1918.498452,10066.800811,-74311.263306,10362.883188
1918.501031,444.123565,-74464.482406,6661.853478
1918.503610,-2664.741391,-75383.797003,-1332.370696
1918.506190,2516.700203,-73698.386908,-1332.370696
1918.508769,18949.272115,-73238.729609,6661.853478
1918.511348,7105.977043,-74464.482406,5773.606348
1918.513927,-23834.631332,-75383.797003,6365.771101
1918.516506,3404.947333,-75996.673402,148.041188
1918.519085,-21317.931130,-74311.263306,-2516.700203
1918.521664,12287.418637,-73085.510509,-5625.565159
1918.524243,-13915.871710,-75077.358804,-10807.006753
1918.526822,1332.370696,-74004.825107,-5773.606348
1918.529401,-11843.295072,-74924.139704,-4145.153275
1918.531980,-10510.924376,-72625.853210,4589.276840
1918.534557,10807.006753,-75537.016103,6957.935855
1918.537134,4737.318029,-76303.111601,444.123565
1918.539711,592.164754,-73851.606007,-5033.400406
1918.542288,-7994.224174,-75996.673402,-14508.036463
1918.544865,-13323.706956,-72319.415011,-1924.535449
1918.547442,10362.883188,-71246.881314,8734.430116
1918.550019,4441.235652,-72779.072310,-2368.659014
1918.552596,-24574.837274,-75996.673402,-6365.771101
1918.555173,-5181.441594,-77375.645298,-7105.977043
1918.557750,-7994.224174,-72625.853210,-12583.501014
1918.560327,-1924.535449,-70480.785816,-3701.029710
1918.562904,2516.700203,-72779.072310,1924.535449
1918.565481,-18209.066173,-75077.358804,-1924.535449
1918.568058,-6069.688724,-76303.111601,-9326.594869
1918.570635,-10510.924376,-75843.454302,-5181.441594
1918.573212,5921.647536,-73238.729609,2960.823768
1918.575789,-3849.070898,-72319.415011,1184.329507
1918.578366,9178.553681,-70634.004916,3849.070898
1918.580944,-444.123565,-74770.920605,5329.482782
1918.583521,16580.613101,-75383.797003,7846.182985
1918.586098,5625.565159,-76915.987999,7402.059420
1918.588675,-592.164754,-75690.235202,5773.606348
1918.591252,-148.041188,-72779.072310,5773.606348
1918.593829,4885.359217,-71859.757712,3552.988522
1918.596406,12731.542202,-72319.415011,2960.823768
1918.598983,15248.242405,-74311.263306,5921.647536
1918.601560,12583.501014,-73698.386908,6217.729913
1918.604137,5033.400406,-74004.825107,7994.224174
1918.606714,17172.777854,-77069.207099,13027.624579
1918.609291,-2220.617826,-75230.577904,-3849.070898
1918.611868,-9474.636058,-72319.415011,7698.141797
1918.614445,32124.937883,-71093.662214,10362.883188
1918.617022,-24574.837274,-74311.263306,10362.883188
1918.619599,15248.242405,-75537.016103,12731.542202
1918.622176,2516.700203,-75383.797003,8586.388927
1918.624753,10955.047942,-72779.072310,13767.830521
1918.627330,11843.295072,-74464.482406,9770.718434
1918.629907,-4885.359217,-74311.263306,4885.359217
1918.632484,1332.370696,-75537.016103,-1628.453072
1918.635061,13323.706956,-74004.825107,2220.617826
1918.637637,5329.482782,-73238.729609,4885.359217
1918.640212,13323.706956,-74464.482406,5329.482782
1918.642788,-29312.155303,-75996.673402,2220.617826
1918.645364,8438.347739,-74464.482406,5329.482782
1918.647940,-14804.118840,-75077.358804,-2664.741391
1918.650515,1184.329507,-72472.634111,-6661.853478
1918.653091,-4589.276840,-75383.797003,-12583.501014
1918.655667,-16432.571912,-74924.139704,-4589.276840
1918.658243,1332.370696,-74004.825107,444.123565
1918.660819,-14508.036463,-72166.195912,2812.782580
1918.663394,5181.441594,-72932.291410,5477.523971
1918.665970,5033.400406,-77988.521696,592.164754
1918.668546,-30200.402434,-75077.358804,-6809.894666
1918.671122,14359.995275,-73391.948708,10214.842000
1918.673698,12879.583391,-75077.358804,-11251.130318
1918.676273,-47521.221476,-70021.128517,-4589.276840
1918.678849,50037.921679,-75843.454302,6809.894666
1918.681425,-41155.450375,-77528.864398,-10510.924376
1918.684001,-26203.290347,-73698.386908,-3849.070898
1918.686577,20281.642811,-73391.948708,-11251.130318
1918.689152,-30940.608376,-71400.100414,-1924.535449
1918.691728,6069.688724,-73545.167808,-6069.688724
1918.694304,-23390.507767,-75077.358804,-5477.523971
1918.696880,-4441.235652,-76303.111601,-4737.318029
1918.699456,3701.029710,-74770.920605,-3552.988522
1918.702031,-8290.306550,-72472.634111,2812.782580
1918.704607,11251.130318,-73085.510509,2960.823768
1918.707183,-1036.288319,-72472.634111,5773.606348
1918.709759,24574.837274,-74004.825107,8882.471304
1918.712334,2220.617826,-76303.111601,7698.141797
1918.714910,3997.112087,-76149.892501,4145.153275
1918.717486,-3256.906145,-75843.454302,3701.029710
1918.720020,2664.741391,-71553.319513,4885.359217
1918.722554,16728.654289,-71553.319513,4441.235652
1918.725087,9326.594869,-74158.044206,5329.482782
1918.727621,24278.754898,-74924.139704,6513.812290
1918.730155,-2072.576638,-75230.577904,8142.265362
1918.732689,11251.130318,-75843.454302,7698.141797
1918.735222,-10955.047942,-75996.673402,-2664.741391
1918.737756,15100.201217,-71246.881314,4145.153275
1918.740290,36566.173535,-72012.976812,9178.553681
1918.742824,-11103.089130,-72472.634111,9178.553681
1918.745357,19689.478057,-75996.673402,12583.501014
1918.747891,-1776.494261,-76609.549800,13027.624579
1918.750425,17024.736666,-73085.510509,12139.377449
1918.752959,-444.123565,-74004.825107,10510.924376
1918.755493,4589.276840,-73085.510509,3997.112087
1918.758026,-592.164754,-74924.139704,-3256.906145
1918.760560,16580.613101,-74158.044206,-148.041188
1918.763094,296.082377,-73545.167808,2960.823768
1918.765628,10807.006753,-74464.482406,7105.977043
1918.768161,-31236.690752,-76149.892501,-148.041188
1918.770695,10658.965565,-74770.920605,3997.112087
1918.773229,-16580.613101,-74464.482406,-2516.700203
1918.775763,4589.276840,-72319.415011,-6365.771101
1918.778296,888.247130,-75690.235202,-11695.253884
1918.780830,-17764.942608,-74924.139704,-6069.688724
1918.783364,-8290.306550,-73545.167808,-1480.411884
1918.785898,-6217.729913,-72779.072310,8734.430116
1918.788431,148.041188,-73085.510509,4737.318029
1918.790965,-7105.977043,-74617.701505,-2664.741391
1918.793499,-0.000000,-74464.482406,-14359.995275
1918.796033,-21465.972318,-74770.920605,-11843.295072
1918.798566,18505.148550,-73238.729609,4145.153275
1918.801100,-23834.631332,-72625.853210,-2368.659014
1918.803634,-7254.018232,-72625.853210,-5773.606348
1918.806168,-7994.224174,-77069.207099,-12731.542202
1918.808702,-19097.313304,-74770.920605,-9326.594869
1918.811235,6069.688724,-73085.510509,-8882.471304
1918.813769,-17024.736666,-72012.976812,-740.205942
1918.816303,-9178.553681,-73391.948708,-6217.729913
1918.818837,-9326.594869,-75843.454302,-7105.977043
1918.821378,-3701.029710,-75383.797003,-5773.606348
1918.823920,4737.318029,-74924.139704,2960.823768
1918.826461,-8882.471304,-73085.510509,1332.370696
1918.829003,8438.347739,-72472.634111,9030.512492
1918.831544,1332.370696,-73238.729609,6217.729913
1918.834086,11695.253884,-74924.139704,11103.089130
1918.836628,6957.935855,-76762.768900,4737.318029
1918.839169,-3108.864956,-76762.768900,2368.659014
1918.841711,2516.700203,-74464.482406,3108.864956
1918.844252,2072.576638,-71246.881314,4441.235652
1918.846794,18061.024985,-71553.319513,7846.182985
1918.849336,16580.613101,-74924.139704,6809.894666
1918.851877,5033.400406,-74617.701505,5477.523971
1918.854419,6957.935855,-74617.701505,4293.194464
1918.856960,-14508.036463,-75996.673402,-5329.482782
1918.859502,4737.318029,-73391.948708,888.247130
1918.862044,2812.782580,-70787.224015,1332.370696
1918.864585,20281.642811,-71093.662214,7550.100608
1918.867127,8290.306550,-75843.454302,7994.224174
1918.869668,9622.677246,-75843.454302,13471.748144
1918.872210,17320.819043,-74311.263306,6365.771101
1918.874751,-7105.977043,-72779.072310,9622.677246
1918.877293,10658.965565,-73085.510509,7550.100608
1918.879835,-3256.906145,-74311.263306,2664.741391
1918.882376,10510.924376,-73851.606007,-592.164754
1918.884918,8142.265362,-74004.825107,3552.988522
1918.887459,3997.112087,-74617.701505,6365.771101
1918.890001,-19985.560434,-75843.454302,2516.700203
1918.892543,2072.576638,-74617.701505,1184.329507
1918.895084,-13175.665768,-73545.167808,-1480.411884
1918.897626,6809.894666,-73545.167808,-5181.441594
1918.900167,-8734.430116,-74770.920605,-10807.006753
1918.902709,-7846.182985,-75996.673402,-6661.853478
1918.905250,-8734.430116,-74617.701505,-4293.194464
1918.907792,-12731.542202,-73085.510509,2664.741391
1918.910334,7254.018232,-74924.139704,7402.059420
1918.912875,-6661.853478,-75690.235202,592.164754
1918.915417,7550.100608,-76303.111601,592.164754
1918.917958,-10214.842000,-77222.426198,-10510.924376
1918.920500,-22650.301825,-72625.853210,-3404.947333
1918.923048,14656.077652,-72319.415011,8142.265362
1918.925596,-3404.947333,-74311.263306,-4885.359217
1918.928145,-18209.066173,-76303.111601,-5773.606348
1918.930693,2516.700203,-75843.454302,-10510.924376
1918.933241,-16432.571912,-72166.195912,-9770.718434
1918.935789,-2812.782580,-71400.100414,-2516.700203
1918.938338,-19393.395680,-75077.358804,-2960.823768
1918.940886,-5773.606348,-74770.920605,-2516.700203
1918.943434,-3997.112087,-75537.016103,-8734.430116
1918.945982,-740.205942,-73698.386908,888.247130
1918.948531,-444.123565,-74770.920605,3552.988522
1918.951079,6365.771101,-73238.729609,8438.347739
1918.953627,11103.089130,-72779.072310,7846.182985
1918.956175,14359.995275,-74770.920605,9326.594869
1918.958724,740.205942,-75996.673402,4441.235652
1918.961272,-0.000000,-76609.549800,2368.659014
1918.963820,1184.329507,-73545.167808,2960.823768
1918.966368,1332.370696,-71400.100414,4737.318029
1918.968917,22354.219448,-72012.976812,8882.471304
1918.971465,13767.830521,-72932.291410,6069.688724
1918.974013,-3108.864956,-77835.302597,11547.212695
1918.976561,8586.388927,-76303.111601,13619.789333
1918.979109,-1776.494261,-75843.454302,-2220.617826
1918.981658,-5773.606348,-73391.948708,1776.494261
1918.984206,9326.594869,-72166.195912,7846.182985
1918.986754,26499.372724,-73698.386908,10362.883188
1918.989302,5921.647536,-75996.673402,8290.306550
1918.991851,3404.947333,-77528.864398,11547.212695
1918.994399,9178.553681,-74617.701505,10362.883188
1918.996947,888.247130,-72932.291410,10807.006753
1918.999495,4589.276840,-73391.948708,3849.070898
1919.002044,2072.576638,-73085.510509,-444.123565
1919.004592,17468.860231,-73545.167808,3404.947333
1919.007140,296.082377,-75383.797003,1036.288319
1919.009688,-12731.542202,-74770.920605,6365.771101
1919.012237,-11547.212695,-77222.426198,-2960.823768
1919.014785,-8586.388927,-72166.195912,2368.659014
1919.017333,1628.453072,-72319.415011,-3256.906145
1919.019881,-8438.347739,-73545.167808,-6661.853478
1919.022430,-5329.482782,-75537.016103,-12731.542202
1919.024982,-12731.542202,-75843.454302,-6365.771101
1919.027535,-8142.265362,-71859.757712,444.123565
1919.030088,3849.070898,-72779.072310,4589.276840
1919.032641,11991.336260,-75383.797003,5921.647536
1919.035194,5625.565159,-73851.606007,-6661.853478
1919.037747,-24426.796086,-75077.358804,-12879.583391
1919.040300,-16432.571912,-72166.195912,-0.000000
1919.042852,10955.047942,-73391.948708,10214.842000
1919.045405,-27239.578666,-73238.729609,-5329.482782
1919.047958,740.205942,-75077.358804,-7550.100608
1919.050511,-7994.224174,-77375.645298,-8290.306550
1919.053064,-10807.006753,-73545.167808,-7254.018232
1919.055617,-1924.535449,-72779.072310,-5921.647536
1919.058170,-19837.519246,-72779.072310,-1480.411884
1919.060723,148.041188,-74158.044206,-3849.070898
1919.063275,-6217.729913,-75230.577904,-5033.400406
1919.065828,5921.647536,-74004.825107,296.082377
1919.068381,-7698.141797,-75690.235202,3108.864956
1919.070934,7846.182985,-73391.948708,7994.224174
1919.073487,2072.576638,-72932.291410,7698.141797
1919.076040,21910.095883,-72932.291410,11399.171507
1919.078593,2072.576638,-75537.016103,5625.565159
1919.081146,1628.453072,-76149.892501,2368.659014
1919.083698,-4293.194464,-75230.577904,1628.453072
1919.086251,6365.771101,-72012.976812,5181.441594
1919.088804,19097.313304,-70940.443115,6809.894666
1919.091357,8734.430116,-72319.415011,6957.935855
1919.093910,3849.070898,-75996.673402,6661.853478
1919.096463,-16876.695478,-75843.454302,6365.771101
1919.099016,4145.153275,-75537.016103,148.041188
1919.101569,4737.318029,-73851.606007,-2664.741391
1919.104121,2220.617826,-68795.375720,6809.894666
1919.106674,13915.871710,-73545.167808,10658.965565
1919.109227,-296.082377,-74617.701505,14656.077652
1919.111780,14359.995275,-76609.549800,10066.800811
1919.114333,-740.205942,-75537.016103,12287.418637
1919.116886,10658.965565,-73545.167808,10214.842000
1919.119439,-2516.700203,-74770.920605,2220.617826
1919.121992,7550.100608,-72166.195912,2072.576638
1919.124544,12583.501014,-73238.729609,4737.318029
1919.127102,6809.894666,-75383.797003,1924.535449
1919.129659,-14952.160028,-76609.549800,4885.359217
1919.132216,-9178.553681,-77528.864398,-3256.906145
1919.134773,-14063.912898,-73085.510509,148.041188
1919.137330,3108.864956,-72779.072310,-1628.453072
1919.139887,-8734.430116,-74464.482406,-7402.059420
1919.142444,-4885.359217,-74770.920605,-11399.171507
1919.145001,-13323.706956,-75230.577904,-8586.388927
1919.147558,-11547.212695,-73238.729609,-1480.411884
1919.150116,4737.318029,-73545.167808,6809.894666
1919.152673,1480.411884,-74617.701505,7698.141797
1919.155230,-24870.919651,-74770.920605,-7698.141797
1919.157787,740.205942,-74464.482406,-3256.906145
1919.160344,-14656.077652,-73545.167808,1924.535449
1919.162901,1184.329507,-73238.729609,8734.430116
1919.165458,2516.700203,-74924.139704,-2960.823768
1919.168015,-3701.029710,-75077.358804,-7402.059420
1919.170572,-3849.070898,-77528.864398,-8586.388927
1919.173129,-12139.377449,-74158.044206,-3108.864956
1919.175687,-6957.935855,-72932.291410,-3701.029710
1919.178244,-18061.024985,-74004.825107,-3404.947333
1919.180801,-2368.659014,-73698.386908,-3404.947333
1919.183358,888.247130,-74464.482406,-2664.741391
1919.185915,-444.123565,-74158.044206,-148.041188
1919.188472,-444.123565,-75383.797003,4737.318029
1919.191029,5181.441594,-73545.167808,8734.430116
1919.193586,17024.736666,-72319.415011,11399.171507
1919.196143,6365.771101,-74464.482406,10362.883188
1919.198701,3404.947333,-75996.673402,5033.400406
1919.201258,-4885.359217,-75537.016103,1628.453072
1919.203815,4589.276840,-73391.948708,2664.741391
1919.206372,4885.359217,-71246.881314,4441.235652
1919.208929,16876.695478,-73238.729609,11399.171507
1919.211486,14952.160028,-74924.139704,6069.688724
1919.214043,-17764.942608,-74617.701505,-2664.741391
1919.216600,-5773.606348,-74158.044206,-3552.988522
1919.219157,21317.931130,-73851.606007,2516.700203
1919.221714,-16284.530724,-73085.510509,1924.535449
1919.224272,15988.448347,-70327.566716,8586.388927
1919.226829,8142.265362,-73238.729609,9918.759623
1919.229389,-4293.194464,-76609.549800,12287.418637
1919.231950,13471.748144,-76303.111601,12435.459826
1919.234511,-888.247130,-75230.577904,10510.924376
1919.237071,3108.864956,-72779.072310,3552.988522
1919.239632,3108.864956,-73085.510509,-740.205942
1919.242193,19097.313304,-71400.100414,5625.565159
1919.244753,-740.205942,-74464.482406,1184.329507
1919.247314,-3701.029710,-75996.673402,4293.194464
1919.249875,-8734.430116,-76762.768900,-5773.606348
1919.252436,-10955.047942,-73545.167808,-444.123565
1919.254996,1628.453072,-71553.319513,-2516.700203
1919.257557,-9178.553681,-73085.510509,-6365.771101
1919.260118,-4441.235652,-75383.797003,-9918.759623
1919.262678,-13471.748144,-76609.549800,-7994.224174
1919.265239,-11843.295072,-73698.386908,-444.123565
1919.267800,-2368.659014,-73851.606007,5921.647536
1919.270360,1628.453072,-73238.729609,888.247130
1919.272921,7994.224174,-74924.139704,-11843.295072
1919.275482,-36270.091158,-75077.358804,-4293.194464
1919.278042,37158.338288,-72779.072310,-2220.617826
1919.280603,-52998.745447,-75383.797003,-3701.029710
1919.283164,12287.418637,-72166.195912,1776.494261
1919.285724,-5329.482782,-76456.330700,-10807.006753
1919.288285,-37454.420665,-76303.111601,-5921.647536
1919.290846,12879.583391,-74464.482406,-3849.070898
1919.293407,-26055.249158,-74158.044206,-7994.224174
1919.295967,-2516.700203,-73085.510509,-148.041188
1919.298528,-6513.812290,-74924.139704,-1776.494261
1919.301089,8290.306550,-73085.510509,2516.700203
1919.303649,-444.123565,-75843.454302,-0.000000
1919.306210,1036.288319,-75690.235202,7105.977043
1919.308771,3552.988522,-73851.606007,10658.965565
1919.311331,19837.519246,-72472.634111,10955.047942
1919.313892,3552.988522,-73391.948708,13323.706956
1919.316453,5181.441594,-76149.892501,4293.194464
1919.319013,-7254.018232,-75383.797003,296.082377
1919.321574,5921.647536,-73851.606007,1332.370696
1919.324135,12435.459826,-72166.195912,6069.688724
1919.326695,19097.313304,-71400.100414,8438.347739
1919.329256,5181.441594,-75843.454302,12583.501014
1919.331819,8290.306550,-76609.549800,11399.171507
1919.334382,-7550.100608,-77069.207099,-4145.153275
1919.336944,7402.059420,-73238.729609,4145.153275
1919.339507,13471.748144,-72319.415011,6809.894666
1919.342070,20133.601622,-70327.566716,12879.583391
1919.344632,13323.706956,-75690.235202,13619.789333
1919.347195,-2960.823768,-76149.892501,12583.501014
1919.349758,10362.883188,-76915.987999,9622.677246
1919.352320,-6069.688724,-75383.797003,5329.482782
1919.354883,8734.430116,-72779.072310,3552.988522
1919.357446,13027.624579,-73085.510509,1036.288319
1919.360008,5477.523971,-71553.319513,3849.070898
1919.362571,5477.523971,-75077.358804,4145.153275
1919.365134,-30940.608376,-78754.617194,-4441.235652
1919.367696,6217.729913,-75537.016103,1332.370696
1919.370259,-8586.388927,-72779.072310,-1480.411884
1919.372822,3404.947333,-70480.785816,-3552.988522
1919.375384,-5033.400406,-74770.920605,-9030.512492
1919.377947,-10807.006753,-76149.892501,-9474.636058
1919.380510,-7994.224174,-74617.701505,-5329.482782
1919.383072,1184.329507,-73545.167808,1480.411884
1919.385635,8290.306550,-72625.853210,2072.576638
1919.388198,14804.118840,-72319.415011,-7254.018232
1919.390760,-24574.837274,-75383.797003,-9474.636058
1919.393323,-9918.759623,-76303.111601,1480.411884
1919.395886,-7105.977043,-75077.358804,7254.018232
1919.398448,-22058.137072,-71246.881314,-888.247130
1919.401011,4441.235652,-74004.825107,-6661.853478
1919.403574,-2072.576638,-75843.454302,-10066.800811
1919.406136,-11695.253884,-75230.577904,-4589.276840
1919.408699,-6513.812290,-75383.797003,-6217.729913
1919.411262,-18061.024985,-73085.510509,-4589.276840
1919.413824,1036.288319,-74158.044206,-888.247130
1919.416387,1332.370696,-74158.044206,-888.247130
1919.418950,-4145.153275,-74004.825107,1924.535449
1919.421512,888.247130,-76762.768900,2368.659014
1919.424075,2072.576638,-73851.606007,8734.430116
1919.426638,21317.931130,-73085.510509,8438.347739
1919.429200,6217.729913,-72625.853210,10362.883188
1919.431763,7105.977043,-74924.139704,8586.388927
1919.434328,-4441.235652,-76149.892501,1480.411884
1919.436892,-1036.288319,-73391.948708,-888.247130
1919.439457,16284.530724,-72319.415011,6513.812290
1919.442021,14952.160028,-71093.662214,9178.553681
1919.444586,7402.059420,-74617.701505,9622.677246
1919.447150,-16876.695478,-76915.987999,14063.912898
1919.449715,39230.914926,-74617.701505,-1480.411884
1919.452280,-38786.791361,-76762.768900,-8586.388927
1919.454844,25167.002028,-68335.718422,6809.894666
1919.457409,47373.180288,-73238.729609,15248.242405
1919.459973,-17024.736666,-73238.729609,15692.365970
1919.462538,28719.990550,-75537.016103,14211.954086
1919.465103,-12139.377449,-75996.673402,3997.112087
1919.467667,6069.688724,-74770.920605,5181.441594
1919.470232,10362.883188,-75383.797003,888.247130
1919.472796,12139.377449,-70787.224015,5477.523971
1919.475361,2368.659014,-73391.948708,2368.659014
1919.477925,-592.164754,-75383.797003,3849.070898
1919.480490,-30052.361245,-77682.083497,-8586.388927
1919.483055,10955.047942,-74770.920605,-1924.535449
1919.485619,-12139.377449,-72012.976812,-592.164754
1919.488184,4293.194464,-71400.100414,-2664.741391
1919.490748,-7254.018232,-74311.263306,-7846.182985
1919.493313,-10214.842000,-76456.330700,-7994.224174
1919.495878,-10807.006753,-75383.797003,-4737.318029
1919.498442,-888.247130,-74464.482406,3552.988522
1919.501007,3404.947333,-74464.482406,7402.059420
1919.503571,-10214.842000,-75383.797003,6217.729913
1919.506136,12583.501014,-75077.358804,-1480.411884
1919.508700,-18357.107362,-75077.358804,-1924.535449
1919.511265,6513.812290,-74464.482406,4293.194464
1919.513830,-2516.700203,-75537.016103,-4145.153275
1919.516394,-17320.819043,-73698.386908,-5773.606348
1919.518959,9030.512492,-74617.701505,-8882.471304
1919.521523,-24426.796086,-74770.920605,-4145.153275
1919.524088,-2960.823768,-73698.386908,-11251.130318
1919.526653,-19097.313304,-72779.072310,-8142.265362
1919.529217,2220.617826,-73545.167808,-2220.617826
1919.531782,-1332.370696,-73698.386908,4441.235652
1919.534346,-7402.059420,-74464.482406,2960.823768
1919.536913,10955.047942,-76303.111601,8438.347739
1919.539479,888.247130,-75383.797003,6957.935855
1919.542045,24426.796086,-72166.195912,10658.965565
1919.544611,2220.617826,-73698.386908,8882.471304
1919.547178,1184.329507,-74617.701505,4293.194464
1919.549744,-3108.864956,-74924.139704,3256.906145
1919.552310,5921.647536,-73085.510509,3849.070898
1919.554876,4589.276840,-73545.167808,8438.347739
1919.557443,8734.430116,-74158.044206,13027.624579
1919.560009,2072.576638,-76915.987999,11991.336260
1919.562575,7254.018232,-77069.207099,9770.718434
1919.565141,16728.654289,-74924.139704,-5181.441594
1919.567708,-5921.647536,-71859.757712,-1776.494261
1919.570274,22058.137072,-71246.881314,9326.594869
1919.572840,5773.606348,-72625.853210,10955.047942
1919.575406,11991.336260,-74004.825107,16432.571912
1919.577973,4441.235652,-77069.207099,8882.471304
1919.580539,-6513.812290,-76303.111601,6069.688724
1919.583105,9918.759623,-74311.263306,-592.164754
1919.585672,2812.782580,-71553.319513,-592.164754
1919.588238,16876.695478,-71553.319513,7994.224174
1919.590804,8882.471304,-75077.358804,2960.823768
1919.593370,-33309.267390,-77682.083497,-0.000000
1919.595937,740.205942,-76609.549800,-5181.441594
1919.598503,-17024.736666,-72779.072310,-4737.318029
1919.601069,9770.718434,-71246.881314,888.247130
1919.603635,-10214.842000,-73238.729609,-7698.141797
1919.606202,-10955.047942,-75230.577904,-6809.894666
1919.608768,-4737.318029,-75690.235202,-8734.430116
1919.611334,-17468.860231,-74311.263306,-2368.659014
1919.613900,1332.370696,-74770.920605,5477.523971
1919.616467,-9030.512492,-75077.358804,4293.194464
1919.619033,6217.729913,-74004.825107,9030.512492
1919.621599,-2368.659014,-76915.987999,-12139.377449
1919.624165,-42043.697506,-71246.881314,-4589.276840
1919.626732,17616.901420,-73851.606007,2220.617826
1919.629298,-13915.871710,-75690.235202,-10807.006753
1919.631864,-10510.924376,-72625.853210,-6365.771101
1919.634430,8142.265362,-75843.454302,-8734.430116
1919.636997,-37454.420665,-73851.606007,-8734.430116
1919.639563,9326.594869,-74158.044206,-10066.800811
1919.642130,-19985.560434,-73391.948708,-1036.288319
1919.644697,19541.436869,-73238.729609,3997.112087
1919.647264,-7846.182985,-75996.673402,-592.164754
1919.649830,10510.924376,-75077.358804,9918.759623
1919.652397,1628.453072,-76915.987999,6217.729913
1919.654964,16728.654289,-73391.948708,13175.665768
1919.657531,12731.542202,-73391.948708,11695.253884
1919.660097,-4589.276840,-74464.482406,3701.029710
1919.662664,2664.741391,-75383.797003,3256.906145
1919.665231,8586.388927,-74770.920605,2072.576638
1919.667798,7550.100608,-70787.224015,6069.688724
1919.670364,29608.237680,-72166.195912,9474.636058
1919.672931,444.123565,-74004.825107,1332.370696
1919.675498,-9622.677246,-74617.701505,-2664.741391
1919.678065,8586.388927,-77528.864398,-1184.329507
1919.680631,-12139.377449,-72472.634111,4441.235652
1919.683198,21465.972318,-69255.033019,11843.295072
1919.685765,6809.894666,-73545.167808,9622.677246
1919.688332,6217.729913,-74464.482406,16284.530724
1919.690898,11399.171507,-78294.959896,7254.018232
1919.693465,-14359.995275,-75690.235202,6957.935855
1919.696032,18949.272115,-74924.139704,4885.359217
1919.698599,9030.512492,-72472.634111,5921.647536
1919.701165,12731.542202,-71400.100414,6365.771101
1919.703732,7402.059420,-75383.797003,3552.988522
1919.706299,-36714.214723,-77988.521696,-7550.100608
1919.708866,10362.883188,-76456.330700,-592.164754
1919.711432,-16876.695478,-73085.510509,-3997.112087
1919.713999,8438.347739,-69408.252119,-740.205942
1919.716566,-8734.430116,-73391.948708,-8882.471304
1919.719133,-10066.800811,-75843.454302,-7105.977043
1919.721699,-7994.224174,-76303.111601,-6513.812290
1919.724266,-6217.729913,-74770.920605,-444.123565
1919.726833,3552.988522,-73391.948708,6661.853478
1919.729400,3108.864956,-75077.358804,13619.789333
1919.731966,13175.665768,-74464.482406,296.082377
1919.734533,-23242.466579,-74004.825107,-8290.306550
1919.737100,-11695.253884,-73545.167808,740.205942
1919.739667,-8142.265362,-76456.330700,444.123565
1919.742234,-9474.636058,-74770.920605,-7550.100608
1919.744802,1184.329507,-73851.606007,-5625.565159
1919.747369,-20725.766376,-74617.701505,-12139.377449
1919.749937,-8734.430116,-73851.606007,-9030.512492
1919.752504,-12139.377449,-74464.482406,-5921.647536
1919.755072,3108.864956,-72472.634111,1628.453072
1919.757639,2072.576638,-73391.948708,2368.659014
1919.760207,6957.935855,-74770.920605,4589.276840
1919.762774,-2072.576638,-75690.235202,7698.141797
1919.765342,20133.601622,-75077.358804,7402.059420
1919.767909,4737.318029,-73238.729609,9474.636058
1919.770477,9474.636058,-73391.948708,8438.347739
1919.773044,-2664.741391,-74770.920605,4589.276840
1919.775612,-2072.576638,-74004.825107,740.205942
1919.778179,10214.842000,-73085.510509,3404.947333
1919.780747,22206.178260,-74004.825107,6957.935855
1919.783314,21169.889941,-73085.510509,11399.171507
1919.785882,7994.224174,-76609.549800,-5181.441594
1919.788449,-6069.688724,-74924.139704,740.205942
1919.791017,20577.725188,-75690.235202,-2368.659014
1919.793584,-1184.329507,-70940.443115,10510.924376
1919.796152,25167.002028,-70787.224015,10955.047942
1919.798719,444.123565,-75383.797003,18209.066173
1919.801287,12435.459826,-75843.454302,12139.377449
1919.803854,-4885.359217,-77375.645298,3256.906145
1919.806421,4737.318029,-74770.920605,1776.494261
1919.808989,5625.565159,-73391.948708,3997.112087
1919.811556,19541.436869,-70787.224015,9918.759623
1919.814124,3849.070898,-73391.948708,3404.947333
1919.816691,-27831.743419,-78141.740796,-2516.700203
1919.819259,-1036.288319,-77069.207099,-6365.771101
1919.821826,-14952.160028,-74924.139704,-3552.988522
1919.824394,8586.388927,-70940.443115,-296.082377
1919.826961,-9622.677246,-73238.729609,-6661.853478
1919.829529,-7550.100608,-74311.263306,-7846.182985
1919.832096,-8882.471304,-77528.864398,-8142.265362
1919.834664,-17172.777854,-75230.577904,-2516.700203
1919.837231,6513.812290,-72472.634111,1628.453072
1919.839799,-11547.212695,-73391.948708,-3552.988522
1919.842366,-1776.494261,-73238.729609,1776.494261
1919.844934,-7846.182985,-74158.044206,3997.112087
1919.847501,-2516.700203,-74464.482406,2664.741391
1919.850068,-8734.430116,-75843.454302,-4441.235652
1919.852635,-5477.523971,-74617.701505,-8438.347739
1919.855203,-0.000000,-73238.729609,-9030.512492
1919.857770,-13027.624579,-74770.920605,-5329.482782
1919.860337,-11103.089130,-74464.482406,-9622.677246
1919.862904,-8142.265362,-74617.701505,-3108.864956
1919.865472,1924.535449,-74158.044206,1036.288319
1919.868039,-1628.453072,-73545.167808,4885.359217
1919.870606,296.082377,-74004.825107,3108.864956
1919.873174,3256.906145,-75383.797003,9770.718434
1919.875741,24426.796086,-75230.577904,8882.471304
1919.878308,3108.864956,-73545.167808,9770.718434
1919.880875,7402.059420,-73391.948708,7994.224174
1919.883443,-2220.617826,-75077.358804,4737.318029
1919.886010,-1924.535449,-73545.167808,592.164754
1919.888577,14656.077652,-72625.853210,4885.359217
1919.891144,8882.471304,-71859.757712,6809.894666
1919.893712,7402.059420,-73851.606007,8438.347739
1919.896279,4145.153275,-75843.454302,7698.141797
1919.898846,2812.782580,-77528.864398,-2960.823768
1919.901413,-3552.988522,-72472.634111,-1184.329507
1919.903981,28868.031738,-70021.128517,9178.553681
1919.906548,4293.194464,-71553.319513,12139.377449
1919.909115,12879.583391,-72779.072310,15248.242405
1919.911682,9474.636058,-77069.207099,10658.965565
1919.914250,-15544.324782,-76149.892501,3256.906145
1919.916817,11695.253884,-74158.044206,4293.194464
1919.919384,16432.571912,-72319.415011,4145.153275
1919.921951,9178.553681,-71093.662214,5625.565159
1919.924519,7846.182985,-73851.606007,2960.823768
1919.927086,-35677.926404,-77375.645298,-5921.647536
1919.929653,2220.617826,-75230.577904,-4293.194464
1919.932220,-11103.089130,-74004.825107,-3701.029710
1919.934788,3108.864956,-69101.813920,-3552.988522
1919.937355,-6513.812290,-74004.825107,-6957.935855
1919.939922,-8438.347739,-76149.892501,-7402.059420
1919.942490,-13471.748144,-77069.207099,-6809.894666
1919.945057,-6957.935855,-74158.044206,-2220.617826
1919.947624,-296.082377,-73698.386908,6513.812290
1919.950191,-11399.171507,-73545.167808,-888.247130
1919.952759,-5921.647536,-74617.701505,2960.823768
1919.955326,-2516.700203,-76762.768900,9622.677246
1919.957893,-18505.148550,-75383.797003,-2664.741391
1919.960461,148.041188,-75843.454302,-3552.988522
1919.963028,1332.370696,-75843.454302,-8290.306550
1919.965595,-13471.748144,-72779.072310,-6365.771101
1919.968162,-3849.070898,-74004.825107,-8290.306550
1919.970730,-14952.160028,-73238.729609,-6809.894666
1919.973297,148.041188,-74617.701505,-1480.411884
1919.975864,888.247130,-74464.482406,4441.235652
1919.978432,-2812.782580,-73698.386908,2220.617826
1919.980999,10510.924376,-74464.482406,8586.388927
1919.983566,6809.894666,-75537.016103,7254.018232
1919.986133,18209.066173,-74311.263306,12731.542202
1919.988701,8882.471304,-73851.606007,6513.812290
1919.991268,-2664.741391,-74158.044206,7550.100608
1919.993835,-148.041188,-74464.482406,1628.453072
1919.996403,5477.523971,-72932.291410,4737.318029
1919.998970,15544.324782,-71400.100414,5625.565159
1920.001537,7254.018232,-74464.482406,9622.677246
1920.004105,-4293.194464,-75230.577904,17468.860231
1920.006672,18801.230927,-77222.426198,1184.329507
1920.009239,9474.636058,-76609.549800,-148.041188
1920.011806,-4293.194464,-70021.128517,3108.864956
1920.014374,30200.402434,-70634.004916,10510.924376
1920.016941,-6957.935855,-71553.319513,16432.571912
1920.019508,16432.571912,-75537.016103,15544.324782
1920.022076,-12435.459826,-77069.207099,3108.864956
1920.024643,3849.070898,-74311.263306,-444.123565
1920.027210,24426.796086,-73238.729609,1332.370696
1920.029778,5329.482782,-71246.881314,7698.141797
1920.032346,14952.160028,-74617.701505,1628.453072
1920.034914,-37306.379477,-76609.549800,-5773.606348
1920.037482,3108.864956,-76915.987999,-6957.935855
1920.040050,-18653.189738,-75383.797003,-6661.853478
1920.042617,5033.400406,-71093.662214,-2072.576638
1920.045185,-1628.453072,-72932.291410,-6809.894666
1920.047753,-12879.583391,-75383.797003,-9178.553681
1920.050321,-10214.842000,-76303.111601,-6957.935855
1920.052889,-17320.819043,-75843.454302,-1776.494261
1920.055457,4885.359217,-72932.291410,-2516.700203
1920.058025,-8586.388927,-73391.948708,-4885.359217
1920.060592,-888.247130,-72779.072310,3701.029710
1920.063160,-2960.823768,-73851.606007,-2960.823768
1920.065728,-29460.196492,-74924.139704,-3997.112087
1920.068296,2516.700203,-75230.577904,-5329.482782
1920.070864,-17616.901420,-75537.016103,-14211.954086
1920.073432,-7402.059420,-72319.415011,-9474.636058
1920.076000,-8734.430116,-73238.729609,-14804.118840
1920.078567,-12731.542202,-73238.729609,-6513.812290
1920.081135,-3849.070898,-75230.577904,-5921.647536
1920.083703,-6661.853478,-74311.263306,5625.565159
1920.086271,-2072.576638,-74770.920605,3997.112087
1920.088839,11547.212695,-74311.263306,9622.677246
1920.091407,11547.212695,-75077.358804,6957.935855
1920.093975,15840.407159,-74617.701505,11251.130318
1920.096543,6809.894666,-74617.701505,8142.265362
1920.099110,-2812.782580,-74158.044206,3997.112087
1920.101678,-1924.535449,-73851.606007,2664.741391
1920.104246,13323.706956,-72625.853210,4145.153275
1920.106814,17912.983796,-70634.004916,6069.688724
1920.109382,7105.977043,-74770.920605,15988.448347
1920.111950,14063.912898,-75996.673402,11695.253884
1920.114518,-21465.972318,-76762.768900,-6809.894666
1920.117085,-2516.700203,-74004.825107,-148.041188
1920.119653,27535.661042,-71859.757712,11991.336260
1920.122221,-2220.617826,-71553.319513,14211.954086
1920.124789,13619.789333,-72472.634111,15544.324782
1920.127357,5181.441594,-76149.892501,7846.182985
1920.129925,-9622.677246,-75383.797003,2220.617826
1920.132492,12435.459826,-75077.358804,3404.947333
1920.135060,10510.924376,-72319.415011,8734.430116
1920.137627,13619.789333,-72319.415011,7550.100608
1920.140195,-6069.688724,-74464.482406,3256.906145
1920.142762,-26203.290347,-78448.178995,-10658.965565
1920.145330,-444.123565,-74617.701505,-3849.070898
1920.147897,-9474.636058,-73698.386908,-3997.112087
1920.150465,296.082377,-70021.128517,-1924.535449
1920.153032,-3701.029710,-73391.948708,-6809.894666
1920.155600,-10362.883188,-74924.139704,-6217.729913
1920.158167,-2368.659014,-76303.111601,-4441.235652
1920.160735,-3552.988522,-75230.577904,-1184.329507
1920.163302,11399.171507,-72625.853210,-5921.647536
1920.165870,-16432.571912,-72932.291410,-2072.576638
1920.168437,6513.812290,-72166.195912,-4441.235652
1920.171005,-31088.649564,-72472.634111,-3256.906145
1920.173572,-1184.329507,-73851.606007,-740.205942
1920.176140,-15988.448347,-75537.016103,-9770.718434
1920.178707,-14656.077652,-74617.701505,-7698.141797
1920.181275,-3404.947333,-74158.044206,-12435.459826
1920.183842,-15100.201217,-73085.510509,-8438.347739
1920.186410,-5033.400406,-75077.358804,-2220.617826
1920.188977,3552.988522,-74311.263306,4145.153275
1920.191545,-3552.988522,-75230.577904,4737.318029
1920.194112,8438.347739,-74924.139704,5477.523971
1920.196680,4885.359217,-74004.825107,8734.430116
1920.199247,20873.807564,-74311.263306,11843.295072
1920.201815,4293.194464,-74311.263306,8734.430116
1920.204382,1332.370696,-74004.825107,6217.729913
1920.206950,1628.453072,-74770.920605,4293.194464
1920.209517,-740.205942,-73698.386908,1332.370696
1920.212085,8586.388927,-73085.510509,5477.523971
1920.214652,14656.077652,-74617.701505,10955.047942
1920.217220,12879.583391,-74464.482406,17024.736666
1920.219787,148.041188,-75843.454302,-7254.018232
1920.222355,-1924.535449,-74311.263306,-4441.235652
1920.224922,11399.171507,-74924.139704,8882.471304
1920.227490,23686.590144,-70940.443115,12879.583391
1920.230057,11991.336260,-71706.538613,14804.118840
1920.232625,14359.995275,-75383.797003,13767.830521
1920.235192,-6069.688724,-77222.426198,3701.029710
1920.237759,-3552.988522,-75690.235202,5181.441594
1920.240326,17912.983796,-72012.976812,3701.029710
1920.242893,9622.677246,-70634.004916,6809.894666
1920.245461,13619.789333,-74158.044206,1776.494261
1920.248028,-33753.390955,-75383.797003,-6957.935855
1920.250595,-0.000000,-77069.207099,-8882.471304
1920.253162,-21317.931130,-74617.701505,-4145.153275
1920.255729,2072.576638,-70021.128517,-2960.823768
1920.258297,-740.205942,-72166.195912,-7254.018232
1920.260864,-9622.677246,-74924.139704,-7402.059420
1920.263431,-10955.047942,-76303.111601,-6661.853478
1920.265998,-1480.411884,-75690.235202,-3849.070898
1920.268565,1776.494261,-74004.825107,-0.000000
1920.271133,-888.247130,-74617.701505,-2812.782580
1920.273700,-12287.418637,-70940.443115,-296.082377
1920.276267,5181.441594,-75537.016103,6513.812290
1920.278834,-15692.365970,-77222.426198,-3701.029710
1920.281401,-8438.347739,-75843.454302,-4737.318029
1920.283969,1776.494261,-75537.016103,-10066.800811
1920.286536,-17320.819043,-72625.853210,-9178.553681
1920.289103,444.123565,-74004.825107,-11547.212695
1920.291670,-13619.789333,-74004.825107,-4589.276840
1920.294237,8142.265362,-74311.263306,2664.741391
1920.296805,-11103.089130,-75843.454302,3849.070898
1920.299372,10807.006753,-73391.948708,5625.565159
1920.301939,3997.112087,-74464.482406,8882.471304
1920.304506,24574.837274,-73545.167808,10066.800811
1920.307073,9770.718434,-74158.044206,10955.047942
1920.309641,1480.411884,-74311.263306,4737.318029
1920.312208,-1036.288319,-74464.482406,3849.070898
1920.314775,4441.235652,-74158.044206,2960.823768
1920.317342,4589.276840,-72319.415011,6513.812290
1920.319910,18209.066173,-72319.415011,4441.235652
1920.322477,7402.059420,-74924.139704,2812.782580
1920.325044,-9770.718434,-77375.645298,1776.494261
1920.327611,4885.359217,-76456.330700,7698.141797
1920.330178,21169.889941,-74004.825107,10362.883188
1920.332746,12731.542202,-71093.662214,13175.665768
1920.335313,21614.013506,-72779.072310,15396.283594
1920.337880,5033.400406,-76456.330700,11843.295072
1920.340447,-1924.535449,-76762.768900,7105.977043
1920.343014,3108.864956,-76303.111601,4737.318029
1920.345582,17912.983796,-72932.291410,10362.883188
1920.348149,6957.935855,-72319.415011,5625.565159
1920.350716,-3849.070898,-74158.044206,4737.318029
1920.353283,-23390.507767,-77988.521696,-12435.459826
1920.355851,-3108.864956,-75843.454302,-5181.441594
1920.358418,-10658.965565,-74464.482406,-5033.400406
1920.360985,-2072.576638,-71400.100414,-1776.494261
1920.363552,-296.082377,-72319.415011,-6365.771101
1920.366119,-9918.759623,-74617.701505,-6661.853478
1920.368687,-11399.171507,-74770.920605,-5329.482782
1920.371254,-5625.565159,-73391.948708,-5329.482782
1920.373821,-1332.370696,-71859.757712,-7550.100608
1920.376388,-14952.160028,-72932.291410,-4589.276840
1920.378956,11695.253884,-72932.291410,3256.906145
1920.381523,-23094.425390,-75690.235202,-2516.700203
1920.384090,-4737.318029,-76456.330700,-2072.576638
1920.386657,6513.812290,-74924.139704,-13027.624579
1920.389224,-18801.230927,-73391.948708,-12435.459826
1920.391792,-7105.977043,-72472.634111,-14063.912898
1920.394359,-10066.800811,-72779.072310,-7698.141797
1920.396926,-6661.853478,-72779.072310,-6365.771101
1920.399493,740.205942,-75383.797003,4885.359217
1920.402061,-8142.265362,-75230.577904,3849.070898
1920.404628,13471.748144,-73391.948708,9770.718434
1920.407195,12435.459826,-73391.948708,6661.853478
1920.409762,18505.148550,-72932.291410,13915.871710
1920.412329,5773.606348,-74311.263306,6365.771101
1920.414897,-1924.535449,-74311.263306,2812.782580
1920.417464,148.041188,-74924.139704,1776.494261
1920.420031,2664.741391,-73391.948708,4293.194464
1920.422598,19837.519246,-73545.167808,7698.141797
1920.425166,18505.148550,-72779.072310,10214.842000
1920.427733,-11251.130318,-75843.454302,3552.988522
1920.430300,-3849.070898,-77069.207099,-2960.823768
1920.432867,-8438.347739,-72625.853210,2812.782580
1920.435434,11547.212695,-69714.690318,10510.924376
1920.438002,10807.006753,-70940.443115,13175.665768
1920.440534,15544.324782,-72932.291410,14508.036463
1920.443066,-1480.411884,-77375.645298,5625.565159
1920.445599,-1184.329507,-76456.330700,4293.194464
1920.448131,12287.418637,-73851.606007,3997.112087
1920.450664,14508.036463,-71246.881314,10658.965565
1920.453196,9326.594869,-72932.291410,2072.576638
1920.455728,-28275.866984,-74617.701505,-3997.112087
1920.458261,-8142.265362,-77375.645298,-14508.036463
1920.460793,-24574.837274,-75383.797003,-6069.688724
1920.463326,7994.224174,-71093.662214,-3997.112087
1920.465858,-8586.388927,-72932.291410,-5181.441594
1920.468390,-7402.059420,-73698.386908,-5181.441594
1920.470923,-5625.565159,-76456.330700,-4885.359217
1920.473455,-6217.729913,-74004.825107,-5181.441594
1920.475987,296.082377,-75383.797003,2812.782580
1920.478520,3552.988522,-74617.701505,-1776.494261
1920.481052,-19541.436869,-72319.415011,1184.329507
1920.483585,9030.512492,-73545.167808,4589.276840
1920.486117,-11695.253884,-76456.330700,-3552.988522
1920.488649,-11991.336260,-75996.673402,-5329.482782
1920.491182,-1628.453072,-75230.577904,-16432.571912
1920.493714,-23094.425390,-71553.319513,-11547.212695
1920.496247,2072.576638,-72932.291410,-10362.883188
1920.498779,-16136.489536,-72779.072310,-5329.482782
1920.501311,4293.194464,-74158.044206,5625.565159
1920.503844,-10807.006753,-76915.987999,2812.782580
1920.506376,14063.912898,-73851.606007,10510.924376
1920.508909,3701.029710,-75077.358804,7994.224174
1920.511441,23538.548956,-72779.072310,12435.459826
1920.513973,1480.411884,-74770.920605,12731.542202
1920.516506,592.164754,-74770.920605,5181.441594
1920.519038,296.082377,-74464.482406,2072.576638
1920.521571,1036.288319,-74464.482406,4737.318029
1920.524103,5773.606348,-72012.976812,8142.265362
1920.526635,9918.759623,-74617.701505,11843.295072
1920.529168,14804.118840,-74311.263306,15692.365970
1920.531700,14952.160028,-75690.235202,-7105.977043
1920.534233,-26351.331535,-75690.235202,-2664.741391
1920.536765,23834.631332,-72625.853210,12287.418637
1920.539297,15248.242405,-71553.319513,10362.883188
1920.541836,6957.935855,-71859.757712,13767.830521
1920.544375,8142.265362,-77375.645298,9326.594869
1920.546914,-7846.182985,-77835.302597,3552.988522
1920.549453,18801.230927,-73851.606007,1480.411884
1920.551992,592.164754,-71400.100414,5773.606348
1920.554530,19985.560434,-72166.195912,5329.482782
1920.557069,-37306.379477,-77375.645298,-11547.212695
1920.559608,7994.224174,-74924.139704,-6069.688724
1920.562147,-20133.601622,-74770.920605,-8734.430116
1920.564686,1776.494261,-72012.976812,-2220.617826
1920.567225,-5625.565159,-74004.825107,-5921.647536
1920.569763,-11251.130318,-73851.606007,-4589.276840
1920.572302,-5329.482782,-76303.111601,-1480.411884
1920.574841,-9326.594869,-73545.167808,-3552.988522
1920.577380,-3552.988522,-72625.853210,-5921.647536
1920.579919,-7846.182985,-74617.701505,-7698.141797
1920.582458,-592.164754,-71706.538613,296.082377
1920.584997,-20873.807564,-74617.701505,148.041188
1920.587535,-8438.347739,-75537.016103,-2072.576638
1920.590074,-740.205942,-76915.987999,-11251.130318
1920.592613,-13175.665768,-75383.797003,-14359.995275
1920.595152,-3849.070898,-72012.976812,-13767.830521
1920.597691,-10955.047942,-72319.415011,-5329.482782
1920.600230,888.247130,-72932.291410,-3701.029710
1920.602769,-4441.235652,-74770.920605,3701.029710
1920.605307,-0.000000,-75690.235202,3256.906145
1920.607846,11547.212695,-74770.920605,10362.883188
1920.610385,13619.789333,-74004.825107,7105.977043
1920.612924,6809.894666,-73238.729609,13027.624579
1920.615463,5329.482782,-73085.510509,6365.771101
1920.618002,-2664.741391,-74770.920605,4293.194464
1920.620540,296.082377,-74770.920605,1036.288319
1920.623079,7550.100608,-74158.044206,4145.153275
1920.625618,10066.800811,-73545.167808,9178.553681
1920.628157,16284.530724,-72779.072310,18209.066173
1920.630696,12731.542202,-76915.987999,4589.276840
1920.633235,-17912.983796,-76303.111601,-13471.748144
1920.635774,6661.853478,-71093.662214,6217.729913
1920.638312,27387.619854,-72625.853210,13027.624579
1920.640851,-2072.576638,-70021.128517,19541.436869
1920.643396,17320.819043,-76149.892501,12879.583391
1920.645941,-15544.324782,-76762.768900,4293.194464
1920.648485,9474.636058,-76149.892501,1184.329507
1920.651030,17172.777854,-73085.510509,6365.771101
1920.653575,9178.553681,-71553.319513,6957.935855
1920.656119,-12879.583391,-74770.920605,5329.482782
1920.658664,-19097.313304,-78141.740796,-13619.789333
1920.661209,-8290.306550,-74617.701505,-5033.400406
1920.663754,-1628.453072,-74004.825107,-6661.853478
1920.666298,-8586.388927,-71093.662214,-2812.782580
1920.668843,6957.935855,-73391.948708,-3552.988522
1920.671388,-14952.160028,-75996.673402,-6513.812290
1920.673932,-6809.894666,-75383.797003,-1036.288319
1920.676477,3404.947333,-74004.825107,-1332.370696
1920.679022,-2812.782580,-75383.797003,-8882.471304
1920.681567,-1776.494261,-74770.920605,7105.977043
1920.684111,7254.018232,-71706.538613,-4589.276840
1920.686656,-32421.020260,-73851.606007,-4293.194464
1920.689201,-5477.523971,-76915.987999,-5477.523971
1920.691745,-10214.842000,-77222.426198,-13767.830521
1920.694290,-9622.677246,-72472.634111,-14359.995275
1920.696835,-6513.812290,-73238.729609,-11695.253884
1920.699379,-5921.647536,-72319.415011,-1776.494261
1920.701924,740.205942,-74311.263306,1036.288319
1920.704469,-9030.512492,-75690.235202,3997.112087
1920.707014,10214.842000,-75077.358804,8142.265362
1920.709558,11547.212695,-74770.920605,9030.512492
1920.712103,23242.466579,-72319.415011,13027.624579
1920.714648,5921.647536,-74004.825107,10807.006753
1920.717192,-3849.070898,-74158.044206,2812.782580
1920.719737,-2072.576638,-74770.920605,2072.576638
1920.722282,-0.000000,-73391.948708,-592.164754
1920.724827,17468.860231,-70634.004916,5477.523971
1920.727371,16580.613101,-72472.634111,3404.947333
1920.729916,-7402.059420,-75537.016103,6513.812290
1920.732461,17468.860231,-77375.645298,4589.276840
1920.735005,-8142.265362,-76915.987999,2812.782580
1920.737550,20429.683999,-70480.785816,11695.253884
1920.740095,20281.642811,-71706.538613,9770.718434
1920.742639,2960.823768,-72319.415011,14656.077652
1920.745189,9622.677246,-77069.207099,8586.388927
1920.747739,-8882.471304,-76609.549800,2812.782580
1920.750289,23834.631332,-71859.757712,9918.759623
1920.752839,-3849.070898,-73391.948708,1480.411884
1920.755389,3552.988522,-71706.538613,6365.771101
1920.757939,-26499.372724,-76762.768900,-13767.830521
1920.760489,-4441.235652,-74770.920605,-6661.853478
1920.763038,-11991.336260,-74770.920605,-7846.182985
1920.765588,-9178.553681,-72932.291410,-5921.647536
1920.768138,3552.988522,-72012.976812,-5181.441594
1920.770688,-10066.800811,-76303.111601,-5921.647536
1920.773238,-13767.830521,-72625.853210,-3849.070898
1920.775788,-11251.130318,-75996.673402,1924.535449
1920.778338,-13619.789333,-74004.825107,1628.453072
1920.780888,9622.677246,-72625.853210,2220.617826
1920.783438,7846.182985,-73238.729609,3849.070898
1920.785987,-11695.253884,-74004.825107,-2072.576638
1920.788537,-3552.988522,-75843.454302,-5921.647536
1920.791087,-3997.112087,-76149.892501,-13027.624579
1920.793637,-12583.501014,-74770.920605,-12583.501014
1920.796187,-888.247130,-73545.167808,-6809.894666
1920.798737,-11547.212695,-72166.195912,-4441.235652
1920.801287,3552.988522,-74158.044206,740.205942
1920.803837,-17468.860231,-76456.330700,296.082377
1920.806386,17468.860231,-74924.139704,11251.130318
1920.808936,9474.636058,-75996.673402,5921.647536
1920.811486,21614.013506,-72625.853210,14804.118840
1920.814036,10362.883188,-74464.482406,12731.542202
1920.816586,-5773.606348,-74004.825107,6217.729913
1920.819136,888.247130,-74617.701505,2960.823768
1920.821686,14804.118840,-73698.386908,148.041188
1920.824236,15248.242405,-72932.291410,9770.718434
1920.826785,9178.553681,-75690.235202,16432.571912
1920.829335,35233.802839,-74924.139704,14063.912898
1920.831885,-27387.619854,-79673.931792,-2812.782580
1920.834435,15248.242405,-75383.797003,9474.636058
1920.836985,20133.601622,-74311.263306,14508.036463
1920.839535,148.041188,-69867.909418,14656.077652
1920.842085,13915.871710,-72932.291410,9326.594869
1920.844635,-10658.965565,-75996.673402,3997.112087
1920.847188,8142.265362,-75843.454302,3849.070898
1920.849741,12139.377449,-73391.948708,9030.512492
1920.852294,11251.130318,-72012.976812,5773.606348
1920.854847,-14063.912898,-74311.263306,5921.647536
1920.857400,-14952.160028,-75843.454302,-13619.789333
1920.859954,-22206.178260,-74617.701505,-8142.265362
1920.862507,5329.482782,-73085.510509,-6661.853478
1920.865060,-14211.954086,-73698.386908,-3108.864956
1920.867613,3552.988522,-74464.482406,-2368.659014
1920.870166,-10955.047942,-75230.577904,-4441.235652
1920.872719,-19837.519246,-73238.729609,-2220.617826
1920.875273,-8438.347739,-75230.577904,2516.700203
1920.877826,9918.759623,-74924.139704,3108.864956
1920.880379,-5921.647536,-73238.729609,4145.153275
1920.882932,1332.370696,-73698.386908,1036.288319
1920.885485,-14211.954086,-74770.920605,-4737.318029
1920.888038,-17320.819043,-76456.330700,-6069.688724
1920.890592,-5921.647536,-74924.139704,-13323.706956
1920.893145,-11399.171507,-72166.195912,-12287.418637
1920.895698,-1184.329507,-73391.948708,-2812.782580
1920.898251,-0.000000,-73391.948708,1332.370696
1920.900804,-4885.359217,-74311.263306,3108.864956
1920.903357,-1332.370696,-75996.673402,5921.647536
1920.905911,6365.771101,-75077.358804,9770.718434
1920.908464,25167.002028,-74311.263306,10066.800811
1920.911017,10510.924376,-72779.072310,10214.842000
1920.913570,10214.842000,-73851.606007,11547.212695
1920.916123,-3108.864956,-75537.016103,3552.988522
1920.918676,-9178.553681,-73238.729609,-296.082377
1920.921230,12435.459826,-73545.167808,3404.947333
1920.923783,5477.523971,-72319.415011,4737.318029
1920.926336,12731.542202,-72625.853210,17172.777854
1920.928889,2368.659014,-76915.987999,-5181.441594
1920.931442,-22354.219448,-73698.386908,-5181.441594
1920.933995,23390.507767,-73238.729609,13471.748144
1920.936549,15692.365970,-72166.195912,11695.253884
1920.939102,19541.436869,-71859.757712,14508.036463
1920.941655,1480.411884,-77222.426198,9178.553681
1920.944208,-1628.453072,-75537.016103,9326.594869
1920.946761,16728.654289,-75537.016103,5477.523971
1920.949317,4737.318029,-73545.167808,8882.471304
1920.951874,6069.688724,-72932.291410,2516.700203
1920.954430,-27979.784608,-76149.892501,-13175.665768
1920.956986,2516.700203,-74004.825107,-6217.729913
1920.959542,-16876.695478,-75383.797003,-8882.471304
1920.962098,-2368.659014,-72625.853210,-2664.741391
1920.964654,-2960.823768,-73698.386908,-7105.977043
1920.967210,-14656.077652,-74004.825107,-3701.029710
1920.969766,-8290.306550,-74770.920605,-592.164754
1920.972323,4885.359217,-74004.825107,-4885.359217
1920.974879,-13619.789333,-74617.701505,-10066.800811
1920.977435,-10807.006753,-75383.797003,7994.224174
1920.979991,14359.995275,-73238.729609,6365.771101
1920.982547,-21317.931130,-74464.482406,-5033.400406
1920.985103,592.164754,-75230.577904,-5033.400406
1920.987659,-5921.647536,-77988.521696,-10658.965565
1920.990216,-17320.819043,-72472.634111,-13471.748144
1920.992772,740.205942,-71553.319513,-5773.606348
1920.995328,-5477.523971,-73698.386908,-740.205942
1920.997884,-1924.535449,-74770.920605,6217.729913
1921.000440,-3997.112087,-76609.549800,3849.070898
1921.002996,5477.523971,-74464.482406,13323.706956
1921.005552,21465.972318,-75230.577904,6365.771101
1921.008108,14359.995275,-73085.510509,16432.571912
1921.010665,12435.459826,-72932.291410,8438.347739
1921.013221,-9918.759623,-74924.139704,3404.947333
1921.015777,-148.041188,-74158.044206,1480.411884
1921.018333,18357.107362,-74311.263306,1332.370696
1921.020889,27239.578666,-71400.100414,7254.018232
1921.023445,26055.249158,-74004.825107,6809.894666
1921.026001,3552.988522,-74617.701505,4145.153275
1921.028558,9178.553681,-77528.864398,-3849.070898
1921.031114,8734.430116,-75230.577904,12287.418637
1921.033670,23242.466579,-71246.881314,14359.995275
1921.036226,8734.430116,-73851.606007,12583.501014
1921.038782,10510.924376,-74158.044206,6069.688724
1921.041338,-5773.606348,-75996.673402,3404.947333
1921.043894,21021.848753,-74311.263306,9178.553681
1921.046450,-592.164754,-73698.386908,5625.565159
1921.049007,-2960.823768,-73085.510509,5329.482782
1921.051566,-26351.331535,-76915.987999,-11843.295072
1921.054124,1184.329507,-74158.044206,-5329.482782
1921.056683,-14359.995275,-73851.606007,-12435.459826
1921.059242,-3849.070898,-72012.976812,-4145.153275
1921.061801,-2516.700203,-74311.263306,-6513.812290
1921.064360,-16728.654289,-75383.797003,-4441.235652
1921.066919,-13027.624579,-75383.797003,296.082377
1921.069478,-11843.295072,-76609.549800,-296.082377
1921.072037,-12583.501014,-73238.729609,5477.523971
1921.074596,27387.619854,-74617.701505,-4441.235652
1921.077155,-53886.992578,-73085.510509,-10955.047942
1921.079714,11547.212695,-73698.386908,2516.700203
1921.082273,-25018.960840,-77375.645298,-4441.235652
1921.084832,-17172.777854,-74311.263306,-9178.553681
1921.087391,9474.636058,-73391.948708,-16284.530724
1921.089950,-18209.066173,-72932.291410,-2664.741391
1921.092509,13323.706956,-72779.072310,-1480.411884
1921.095068,-14508.036463,-74004.825107,2220.617826
1921.097626,6217.729913,-75077.358804,4589.276840
1921.100185,3256.906145,-75537.016103,9770.718434
1921.102744,23390.507767,-73391.948708,9918.759623
1921.105303,10510.924376,-73851.606007,11103.089130
1921.107862,7846.182985,-73238.729609,5921.647536
1921.110421,-7254.018232,-74770.920605,3256.906145
1921.112980,1628.453072,-74004.825107,1332.370696
1921.115539,22354.219448,-73545.167808,740.205942
1921.118098,24870.919651,-72012.976812,3701.029710
1921.120657,4441.235652,-73698.386908,7254.018232
1921.123216,10658.965565,-75690.235202,-2664.741391
1921.125775,-7698.141797,-77682.083497,4589.276840
1921.128334,17024.736666,-71553.319513,10955.047942
1921.130893,18949.272115,-72625.853210,14211.954086
1921.133455,14804.118840,-73391.948708,13175.665768
1921.136017,4441.235652,-75996.673402,2812.782580
1921.138578,-740.205942,-75537.016103,7254.018232
1921.141139,17468.860231,-74770.920605,9030.512492
1921.143700,2516.700203,-73851.606007,3404.947333
1921.146262,-11843.295072,-74464.482406,740.205942
1921.148823,-17764.942608,-74617.701505,-12139.377449
1921.151384,-9178.553681,-73085.510509,-6957.935855
1921.153945,-8142.265362,-73545.167808,-6957.935855
1921.156507,-6809.894666,-73238.729609,-5921.647536
1921.159068,-1776.494261,-74004.825107,-4589.276840
1921.161629,-5329.482782,-75383.797003,-2368.659014
1921.164190,-6957.935855,-75077.358804,296.082377
1921.166752,-6069.688724,-75383.797003,-3701.029710
1921.169313,4293.194464,-74464.482406,1480.411884
1921.171874,-1628.453072,-74464.482406,-1776.494261
1921.174435,-17468.860231,-73085.510509,444.123565
1921.176997,7402.059420,-76762.768900,-2072.576638
1921.179558,-25907.207970,-76456.330700,-8290.306550
1921.182119,-5477.523971,-73851.606007,-13471.748144
1921.184680,-9918.759623,-72932.291410,-11251.130318
1921.187242,592.164754,-71093.662214,-5181.441594
1921.189803,-5181.441594,-74004.825107,1628.453072
1921.192364,-4885.359217,-75230.577904,3701.029710
1921.194926,-148.041188,-75996.673402,6809.894666
1921.197487,13915.871710,-75690.235202,13915.871710
1921.200048,25611.125593,-74004.825107,14804.118840
1921.202609,2664.741391,-74464.482406,12583.501014
1921.205171,740.205942,-74004.825107,5477.523971
1921.207732,-9474.636058,-74617.701505,2960.823768
1921.210293,11251.130318,-74311.263306,1184.329507
1921.212854,18653.189738,-72779.072310,7550.100608
1921.215416,29756.278868,-74004.825107,14063.912898
1921.217977,15692.365970,-75996.673402,1036.288319
1921.220538,-23982.672521,-75230.577904,-4737.318029
1921.223099,12583.501014,-74770.920605,11695.253884
1921.225661,-444.123565,-73085.510509,16284.530724
1921.228222,17468.860231,-70327.566716,13915.871710
1921.230783,9622.677246,-74770.920605,6957.935855
1921.233344,-7846.182985,-74464.482406,4589.276840
1921.235874,28719.990550,-75383.797003,12731.542202
1921.238405,-2812.782580,-74924.139704,1628.453072
1921.240935,-6809.894666,-73545.167808,6661.853478
1921.243465,-16284.530724,-76762.768900,-13027.624579
1921.245995,-6957.935855,-72625.853210,-4885.359217
1921.248525,-4293.194464,-74464.482406,-11251.130318
1921.251055,-12879.583391,-73238.729609,-4441.235652
1921.253585,4293.194464,-74770.920605,-7105.977043
1921.256115,-14211.954086,-75690.235202,-4441.235652
1921.258645,-6365.771101,-71246.881314,-1776.494261
1921.261175,2812.782580,-74464.482406,-148.041188
1921.263705,-15248.242405,-75230.577904,-9918.759623
1921.266235,296.082377,-72779.072310,-2516.700203
1921.268765,-14063.912898,-74770.920605,444.123565
1921.271296,-7105.977043,-73851.606007,-3997.112087
1921.273826,-13915.871710,-76149.892501,-13323.706956
1921.276356,-13619.789333,-74770.920605,-14804.118840
1921.278886,-3256.906145,-72319.415011,-16876.695478
1921.281416,-11843.295072,-71400.100414,-7254.018232
1921.283946,6513.812290,-73085.510509,2664.741391
1921.286476,-23982.672521,-75690.235202,3404.947333
1921.289006,22650.301825,-75383.797003,10362.883188
1921.291536,-5773.606348,-75537.016103,9622.677246
1921.294066,27831.743419,-72319.415011,16432.571912
1921.296596,10066.800811,-74617.701505,11251.130318
1921.299126,-1776.494261,-74004.825107,8290.306550
1921.301656,-444.123565,-74464.482406,2812.782580
1921.304187,-9770.718434,-72625.853210,888.247130
1921.306717,21021.848753,-71400.100414,444.123565
1921.309247,-12731.542202,-71400.100414,-3701.029710
1921.311777,28275.866984,-70787.224015,13027.624579
1921.314307,35825.967593,-81665.780087,11695.253884
1921.316837,-22058.137072,-75843.454302,5329.482782
1921.319367,42487.821071,-72625.853210,12731.542202
1921.321897,-1480.411884,-73085.510509,10955.047942
1921.324427,18209.066173,-73545.167808,10510.924376
1921.326957,4885.359217,-76456.330700,8586.388927
1921.329487,17172.777854,-73545.167808,11103.089130
1921.332017,8290.306550,-74924.139704,444.123565
1921.334547,-17320.819043,-75383.797003,3108.864956
1921.337085,-11991.336260,-75843.454302,-13027.624579
1921.339623,-11251.130318,-72472.634111,-7105.977043
1921.342161,-444.123565,-72166.195912,-8882.471304
1921.344699,-11991.336260,-73545.167808,-7105.977043
1921.347237,444.123565,-75077.358804,-7402.059420
1921.349775,-22354.219448,-75843.454302,-3849.070898
1921.352312,-2220.617826,-72319.415011,-592.164754
1921.354850,-4737.318029,-73698.386908,-7254.018232
1921.357388,-9178.553681,-73391.948708,-740.205942
1921.359926,592.164754,-76303.111601,8586.388927
1921.362464,-19245.354492,-72166.195912,-3552.988522
1921.365002,-14359.995275,-74617.701505,-4737.318029
1921.367539,-10510.924376,-77222.426198,-10362.883188
1921.370077,-10955.047942,-75383.797003,-14804.118840
1921.372615,1036.288319,-72319.415011,-7698.141797
1921.375153,-6217.729913,-72319.415011,-4293.194464
1921.377691,740.205942,-74158.044206,3849.070898
1921.380229,-14359.995275,-76456.330700,1776.494261
1921.382767,12287.418637,-75383.797003,10955.047942
1921.385304,8438.347739,-75537.016103,10066.800811
1921.387842,20133.601622,-73545.167808,16876.695478
1921.390380,7550.100608,-73698.386908,9030.512492
1921.392918,-6957.935855,-74311.263306,7105.977043
1921.395456,-0.000000,-74158.044206,1776.494261
1921.397994,-10214.842000,-74617.701505,2664.741391
1921.400531,21910.095883,-70940.443115,296.082377
1921.403069,3552.988522,-73238.729609,14211.954086
1921.405607,14952.160028,-77069.207099,6809.894666
1921.408145,-14211.954086,-78601.398095,-444.123565
1921.410683,15840.407159,-73698.386908,11399.171507
1921.413221,16728.654289,-71706.538613,12139.377449
1921.415759,18949.272115,-70940.443115,11991.336260
1921.418296,8290.306550,-75843.454302,7846.182985
1921.420834,2220.617826,-74924.139704,7550.100608
1921.423372,13767.830521,-74158.044206,9326.594869
1921.425910,6809.894666,-74311.263306,2960.823768
1921.428448,-27091.537477,-75077.358804,-4885.359217
1921.430986,-2960.823768,-74924.139704,-9474.636058
1921.433523,-20725.766376,-72932.291410,-10807.006753
1921.436061,2812.782580,-72319.415011,-6217.729913
1921.438606,-14359.995275,-75537.016103,-6069.688724
1921.441151,-6365.771101,-76149.892501,592.164754
1921.443695,-1628.453072,-76609.549800,-2516.700203
1921.446240,-9326.594869,-72625.853210,-3256.906145
1921.448785,-740.205942,-74617.701505,-7254.018232
1921.451330,-6957.935855,-75230.577904,3256.906145
1921.453874,9030.512492,-75230.577904,7105.977043
1921.456419,-19837.519246,-74311.263306,-3701.029710
1921.458964,-5033.400406,-74770.920605,-8586.388927
1921.461508,-13027.624579,-78294.959896,-14804.118840
1921.464053,-15248.242405,-73391.948708,-12139.377449
1921.466598,5033.400406,-71553.319513,-4737.318029
1921.469143,-9178.553681,-72166.195912,1036.288319
1921.471687,444.123565,-74617.701505,7254.018232
1921.474232,-296.082377,-76762.768900,3256.906145
1921.476777,8290.306550,-74924.139704,11843.295072
1921.479321,29164.114115,-75843.454302,10955.047942
1921.481866,888.247130,-73391.948708,12139.377449
1921.484411,10066.800811,-73391.948708,7254.018232
1921.486955,-9918.759623,-75077.358804,2516.700203
1921.489500,-6069.688724,-73238.729609,1184.329507
1921.492045,15544.324782,-71553.319513,-3256.906145
1921.494590,17320.819043,-72166.195912,1184.329507
1921.497134,2220.617826,-74311.263306,8290.306550
1921.499679,2368.659014,-74924.139704,-2368.659014
1921.502224,148.041188,-74924.139704,8882.471304
1921.504768,444.123565,-72472.634111,13915.871710
1921.507313,11695.253884,-70940.443115,10807.006753
1921.509858,13027.624579,-73698.386908,6513.812290
1921.512403,-1036.288319,-74311.263306,4885.359217
1921.514947,22650.301825,-74924.139704,12583.501014
1921.517492,-11695.253884,-75383.797003,5181.441594
1921.520037,-20133.601622,-74617.701505,3997.112087
1921.522581,-10658.965565,-76915.987999,-13027.624579
1921.525126,-8438.347739,-72012.976812,-3552.988522
1921.527671,6809.894666,-71093.662214,-10510.924376
1921.530215,-20281.642811,-73545.167808,-5773.606348
1921.532760,10955.047942,-75690.235202,-5033.400406
1921.535305,-33901.432144,-76456.330700,-4589.276840
1921.537850,296.082377,-71706.538613,1184.329507
1921.540400,14359.995275,-74924.139704,11251.130318
1921.542951,-17468.860231,-75996.673402,-1628.453072
1921.545501,-8734.430116,-75690.235202,7402.059420
1921.548052,6513.812290,-74464.482406,-0.000000
1921.550603,-27831.743419,-75690.235202,-5329.482782
1921.553153,-740.205942,-77528.864398,-9474.636058
1921.555704,-12435.459826,-75996.673402,-13767.830521
1921.558255,-5033.400406,-71400.100414,-3108.864956
1921.560805,296.082377,-72472.634111,-1628.453072
1921.563356,-10510.924376,-72779.072310,6217.729913
1921.565906,3404.947333,-77222.426198,-444.123565
1921.568457,-1184.329507,-74464.482406,11399.171507
1921.571008,33457.308578,-74924.139704,10658.965565
1921.573558,8734.430116,-74158.044206,16580.613101
1921.576109,15692.365970,-73698.386908,9474.636058
1921.578660,-12731.542202,-75230.577904,3404.947333
1921.581210,10362.883188,-72472.634111,-148.041188
1921.583761,12583.501014,-73851.606007,1332.370696
1921.586311,1332.370696,-73238.729609,9474.636058
1921.588862,53294.827824,-72625.853210,21021.848753
1921.591413,-17172.777854,-74617.701505,-13323.706956
1921.593963,-6513.812290,-73238.729609,296.082377
1921.596514,40563.285622,-74004.825107,11991.336260
1921.599065,-7698.141797,-72625.853210,12287.418637
