#time,accel_x,accel_y,accel_z
2994.216331,-689.132909,535.992262,-8901.300072
2994.218922,-2258.824534,-937.986459,-8920.442653
2994.221513,-899.701298,574.277424,-9016.155557
2994.224104,-650.847747,-861.416136,-9226.723946
2994.226701,861.416136,-210.568389,-9207.581365
2994.229299,-574.277424,-325.423874,-8939.585234
2994.231896,-631.705166,-1454.836141,-8671.589102
2994.234493,-2603.390989,2641.676150,-8843.872330
2994.237091,-2105.683888,-363.709035,-9303.294269
2994.239688,746.560651,2450.250342,-9284.151688
2994.242285,57.427742,-229.710970,-9207.581365
2994.244883,1378.265818,669.990328,-8977.870395
2994.247480,-344.566454,-1435.693560,-9073.583299
2994.250078,38.285162,-344.566454,-9016.155557
2994.252675,-1225.125171,1301.695494,-8939.585234
2994.255272,-1435.693560,1033.699363,-9073.583299
2994.257870,114.855485,-38.285162,-9016.155557
2994.260467,-708.275490,153.140646,-9360.722011
2994.263064,1071.984525,574.277424,-9016.155557
2994.265662,-937.986459,1244.267752,-9169.296203
2994.268259,-1875.972918,287.138712,-9092.725880
2994.270856,153.140646,880.558717,-8824.729749
2994.273454,-248.853550,-153.140646,-9456.434915
2994.276051,-2143.969050,363.709035,-9456.434915
2994.278648,191.425808,1646.261949,-8786.444587
2994.281246,-842.273555,-708.275490,-8977.870395
2994.283843,1148.554848,861.416136,-9226.723946
2994.286441,-76.570323,-38.285162,-9437.292334
2994.289038,918.843878,-76.570323,-9188.438784
2994.291635,-38.285162,899.701298,-8977.870395
2994.294233,-1512.263883,-593.420005,-9073.583299
2994.296830,-689.132909,1435.693560,-8977.870395
2994.299427,-516.849682,401.994197,-8997.012976
2994.302025,459.421939,1014.556782,-9245.866526
2994.304622,-516.849682,153.140646,-9265.009107
2994.307219,708.275490,-287.138712,-9226.723946
2994.309817,76.570323,-210.568389,-9188.438784
2994.312414,-191.425808,363.709035,-8958.727814
2994.315011,421.136778,765.703232,-8958.727814
2994.317609,-612.562586,-1263.410333,-9111.868461
2994.320206,-2029.113565,918.843878,-9131.011042
2994.322804,-976.271621,976.271621,-9131.011042
2994.325401,-1531.406464,-631.705166,-9054.440718
2994.327998,-842.273555,-1665.404530,-9016.155557
2994.330603,-1167.697429,-2354.537438,-9016.155557
2994.333205,-631.705166,-95.712904,-8958.727814
2994.335806,-631.705166,1282.552914,-8977.870395
2994.338408,-861.416136,306.281293,-9035.298138
2994.341009,-1818.545176,-1550.549045,-9016.155557
2994.343611,-1435.693560,-2239.681954,-9035.298138
2994.346212,-1148.554848,-210.568389,-9054.440718
2994.348814,-1052.841944,1493.121302,-9092.725880
2994.351415,-937.986459,1129.412267,-8977.870395
2994.354017,-1339.980656,-1531.406464,-8863.014910
2994.356618,-1148.554848,-1780.260014,-8901.300072
2994.359220,-1416.550979,-1416.550979,-8901.300072
2994.361821,-1225.125171,1205.982590,-9226.723946
2994.364423,-1799.402595,1301.695494,-8786.444587
2994.367024,-2909.672282,1780.260014,-9437.292334
2994.369626,-1588.834206,-3962.514226,-9188.438784
2994.372227,-306.281293,593.420005,-9245.866526
2994.374829,-669.990328,-3369.094221,-9073.583299
2994.377431,976.271621,1990.828403,-8556.733618
2994.380032,-1818.545176,-2373.680019,-8843.872330
2994.382634,-1014.556782,861.416136,-8997.012976
2994.385235,-2794.816797,-1703.689691,-8977.870395
2994.387837,-1014.556782,440.279358,-9016.155557
2994.390438,-2182.254211,-325.423874,-8997.012976
2994.393040,-1167.697429,-153.140646,-8997.012976
2994.395641,516.849682,-363.709035,-8939.585234
2994.398243,-957.129040,-1014.556782,-9111.868461
2994.400844,-1646.261949,-1397.408398,-9016.155557
2994.403446,-1091.127106,-38.285162,-9035.298138
2994.406047,-2086.541307,306.281293,-9054.440718
2994.408649,-1378.265818,1512.263883,-8958.727814
2994.411250,-937.986459,-669.990328,-9054.440718
2994.413852,-2220.539373,-3598.805190,-9054.440718
2994.416454,-708.275490,-95.712904,-9188.438784
2994.419055,-689.132909,2086.541307,-9169.296203
2994.421657,1148.554848,2947.957443,-8958.727814
2994.424258,-497.707101,995.414202,-8805.587168
2994.426860,612.562586,-1148.554848,-9265.009107
2994.429461,-344.566454,-1397.408398,-9437.292334
2994.432063,-459.421939,-689.132909,-9245.866526
2994.434664,-861.416136,2316.252277,-8729.016845
2994.437265,-1569.691626,1071.984525,-8863.014910
2994.439866,19.142581,689.132909,-9169.296203
2994.442467,76.570323,-803.988394,-9379.864592
2994.445068,1512.263883,133.998066,-9188.438784
2994.447669,516.849682,612.562586,-8997.012976
2994.450270,-478.564520,631.705166,-9035.298138
2994.452871,-1033.699363,19.142581,-8939.585234
2994.455472,-708.275490,306.281293,-9092.725880
2994.458073,-325.423874,-344.566454,-9150.153622
2994.460674,0.000000,2335.394858,-9418.149754
2994.463276,-631.705166,1856.830338,-9035.298138
2994.465877,-2775.674216,-76.570323,-9092.725880
2994.468478,650.847747,-287.138712,-8939.585234
2994.471079,574.277424,2105.683888,-9016.155557
2994.473680,-1895.115499,-2163.111630,-9303.294269
2994.476281,2431.107762,2335.394858,-9245.866526
2994.478882,-784.845813,-555.134843,-8786.444587
2994.481483,38.285162,-363.709035,-9131.011042
2994.484084,593.420005,1167.697429,-9035.298138
2994.486685,650.847747,-287.138712,-9418.149754
2994.489286,631.705166,1990.828403,-9073.583299
2994.491887,-2086.541307,-689.132909,-8920.442653
2994.494488,-612.562586,1550.549045,-9150.153622
2994.497089,-478.564520,861.416136,-9054.440718
2994.499691,516.849682,382.851616,-9150.153622
2994.502292,-937.986459,19.142581,-9245.866526
2994.504893,229.710970,-229.710970,-9207.581365
2994.507494,0.000000,-267.996131,-8939.585234
2994.510095,-76.570323,1033.699363,-8977.870395
2994.512696,650.847747,842.273555,-9131.011042
2994.515297,-823.130974,-1875.972918,-9073.583299
2994.517898,-2067.398726,1359.123237,-9073.583299
2994.520499,-1225.125171,650.847747,-9035.298138
2994.523100,-1493.121302,-76.570323,-9111.868461
2994.525701,-995.414202,-3349.951640,-9092.725880
2994.528302,-746.560651,-248.853550,-9016.155557
2994.530903,-2067.398726,-918.843878,-8939.585234
2994.533504,-363.709035,1990.828403,-8920.442653
2994.536106,-1244.267752,133.998066,-8997.012976
2994.538706,-1225.125171,-1454.836141,-9111.868461
2994.541307,-1856.830338,-2488.535504,-9111.868461
2994.543908,-1454.836141,-325.423874,-9054.440718
2994.546508,-1665.404530,1665.404530,-9073.583299
2994.549109,-708.275490,153.140646,-9131.011042
2994.551710,-765.703232,-497.707101,-9054.440718
2994.554311,-1741.974853,-2048.256146,-9150.153622
2994.556911,-555.134843,-1837.687757,-8805.587168
2994.559512,-2086.541307,593.420005,-9265.009107
2994.562113,-746.560651,440.279358,-8977.870395
2994.564714,440.279358,229.710970,-8977.870395
2994.567314,-1225.125171,-1454.836141,-9092.725880
2994.569915,-1359.123237,-2220.539373,-8767.302006
2994.572516,880.558717,555.134843,-8824.729749
2994.575117,-2029.113565,-1646.261949,-9111.868461
2994.577717,-612.562586,746.560651,-8786.444587
2994.580318,-3024.527766,-1129.412267,-9035.298138
2994.582919,-1416.550979,-153.140646,-9016.155557
2994.585520,-1856.830338,287.138712,-9111.868461
2994.588120,-1205.982590,-1339.980656,-9265.009107
2994.590721,-765.703232,306.281293,-8824.729749
2994.593322,-1397.408398,-1914.258080,-8939.585234
2994.595923,-1646.261949,-38.285162,-9188.438784
2994.598523,-1435.693560,-191.425808,-9111.868461
2994.601124,-937.986459,1014.556782,-9073.583299
2994.603725,-1320.838075,669.990328,-8997.012976
2994.606326,-976.271621,-2354.537438,-8805.587168
2994.608926,-727.418070,-593.420005,-8939.585234
2994.611527,-2048.256146,-1205.982590,-9322.436850
2994.614128,1244.267752,4804.787781,-9475.577496
2994.616728,-2431.107762,287.138712,-9092.725880
2994.619329,1741.974853,2143.969050,-8939.585234
2994.621930,363.709035,-3483.949706,-9092.725880
2994.624531,1359.123237,459.421939,-9226.723946
2994.627131,-1091.127106,-459.421939,-9016.155557
2994.629732,-1378.265818,2431.107762,-8786.444587
2994.632333,-1646.261949,861.416136,-9131.011042
2994.634934,-191.425808,363.709035,-9399.007173
2994.637534,823.130974,-57.427742,-9226.723946
2994.640135,287.138712,-191.425808,-9169.296203
2994.642736,1091.127106,765.703232,-9054.440718
2994.645337,-516.849682,38.285162,-8863.014910
2994.647938,-497.707101,344.566454,-8958.727814
2994.650538,-784.845813,248.853550,-9188.438784
2994.653139,-650.847747,555.134843,-9494.720077
2994.655740,555.134843,2660.818731,-9016.155557
2994.658341,-3081.955509,1014.556782,-9207.581365
2994.660942,-555.134843,-401.994197,-9226.723946
2994.663542,-210.568389,1799.402595,-9111.868461
2994.666143,-2411.965181,-3024.527766,-9054.440718
2994.668744,1339.980656,38.285162,-9245.866526
2994.671345,248.853550,937.986459,-9169.296203
2994.673946,287.138712,-689.132909,-9265.009107
2994.676546,995.414202,1493.121302,-8786.444587
2994.679147,-1052.841944,-1761.117434,-9245.866526
2994.681748,1397.408398,2775.674216,-9092.725880
2994.684349,-1569.691626,-555.134843,-9169.296203
2994.686950,-95.712904,899.701298,-9188.438784
2994.689550,-765.703232,1148.554848,-9073.583299
2994.692151,-344.566454,-918.843878,-9188.438784
2994.694752,19.142581,401.994197,-9150.153622
2994.697353,133.998066,-248.853550,-9226.723946
2994.699954,535.992262,2029.113565,-9092.725880
2994.702554,-976.271621,440.279358,-9111.868461
2994.705155,803.988394,325.423874,-9169.296203
2994.707756,-3426.521963,-478.564520,-9035.298138
2994.710357,478.564520,2124.826469,-9188.438784
2994.712958,-2756.531635,-1244.267752,-8920.442653
2994.715558,-421.136778,-1550.549045,-8939.585234
2994.718159,-1761.117434,-1339.980656,-8977.870395
2994.720760,-1646.261949,-478.564520,-9265.009107
2994.723361,-497.707101,1454.836141,-9111.868461
2994.725962,-2163.111630,95.712904,-8977.870395
2994.728562,-823.130974,-1167.697429,-8997.012976
2994.731163,-1780.260014,-2335.394858,-8997.012976
2994.733764,-995.414202,-1378.265818,-9054.440718
2994.736365,-1435.693560,1435.693560,-9054.440718
2994.738966,-1052.841944,1071.984525,-9111.868461
2994.741566,-1359.123237,-248.853550,-8977.870395
2994.744167,-976.271621,-2431.107762,-8939.585234
2994.746766,-650.847747,-2086.541307,-8863.014910
2994.749364,-287.138712,-38.285162,-8882.157491
2994.751963,-2335.394858,4402.793584,-9437.292334
2994.754561,-4345.365842,-2488.535504,-9303.294269
2994.757160,1378.265818,1512.263883,-8977.870395
2994.759758,-3388.236802,-5015.356170,-9303.294269
2994.762357,1914.258080,3062.812928,-9016.155557
2994.764956,-2258.824534,-1895.115499,-8690.731683
2994.767554,-2163.111630,-957.129040,-9016.155557
2994.770153,-2029.113565,440.279358,-8690.731683
2994.772751,-2029.113565,-2699.103893,-9073.583299
2994.775350,421.136778,2239.681954,-9016.155557
2994.777948,-1990.828403,-1416.550979,-9150.153622
2994.780547,-57.427742,-248.853550,-8901.300072
2994.783145,-2603.390989,-1435.693560,-8843.872330
2994.785744,-957.129040,-842.273555,-9150.153622
2994.788342,-1091.127106,1473.978722,-9073.583299
2994.790941,-1263.410333,-95.712904,-9073.583299
2994.793539,-899.701298,-1148.554848,-8977.870395
2994.796138,-2545.963246,-2565.105827,-9016.155557
2994.798737,-2201.396792,-1454.836141,-8939.585234
2994.801335,57.427742,3062.812928,-9265.009107
2994.803934,344.566454,1895.115499,-9265.009107
2994.806532,1646.261949,1071.984525,-8997.012976
2994.809131,401.994197,-2679.961312,-8958.727814
2994.811729,784.845813,114.855485,-9169.296203
2994.814328,-555.134843,-95.712904,-9054.440718
2994.816926,-1378.265818,2469.392923,-8882.157491
2994.819525,-2373.680019,727.418070,-9188.438784
2994.822123,344.566454,1014.556782,-9188.438784
2994.824722,133.998066,210.568389,-9226.723946
2994.827320,937.986459,-95.712904,-9169.296203
2994.829919,918.843878,344.566454,-9092.725880
2994.832517,-172.283227,191.425808,-8997.012976
2994.835116,-650.847747,1071.984525,-8977.870395
2994.837715,-1703.689691,267.996131,-9035.298138
2994.840313,-746.560651,1339.980656,-9437.292334
2994.842912,-1320.838075,1244.267752,-9207.581365
2994.845510,-1569.691626,-172.283227,-9150.153622
2994.848109,995.414202,440.279358,-8671.589102
2994.850706,-287.138712,421.136778,-8824.729749
2994.853303,-1684.547110,229.710970,-9188.438784
2994.855900,-574.277424,1569.691626,-9552.147819
2994.858497,114.855485,574.277424,-9111.868461
2994.861094,497.707101,-287.138712,-9016.155557
2994.863691,363.709035,497.707101,-8997.012976
2994.866288,-287.138712,-248.853550,-9265.009107
2994.868885,612.562586,1646.261949,-9188.438784
2994.871482,-57.427742,1167.697429,-9131.011042
2994.874079,-631.705166,325.423874,-9111.868461
2994.876676,-459.421939,-153.140646,-9016.155557
2994.879273,-765.703232,-574.277424,-9131.011042
2994.881870,325.423874,516.849682,-9131.011042
2994.884467,669.990328,1454.836141,-9111.868461
2994.887064,976.271621,363.709035,-9092.725880
2994.889661,95.712904,-1588.834206,-8939.585234
2994.892258,-2507.678085,459.421939,-9054.440718
2994.894855,-363.709035,1014.556782,-9073.583299
2994.897452,-2163.111630,-210.568389,-8824.729749
2994.900049,-2086.541307,-2699.103893,-9054.440718
2994.902646,-1339.980656,-784.845813,-9073.583299
2994.905244,-1186.840010,-1339.980656,-9092.725880
2994.907841,555.134843,2048.256146,-8977.870395
2994.910438,-1646.261949,-306.281293,-8997.012976
2994.913035,-746.560651,-976.271621,-8901.300072
2994.915632,-1933.400661,-2469.392923,-8920.442653
2994.918229,-1301.695494,-861.416136,-8977.870395
2994.920826,-1359.123237,1225.125171,-9035.298138
2994.923423,-784.845813,555.134843,-9035.298138
2994.926020,-1052.841944,-861.416136,-8977.870395
2994.928617,-1186.840010,-2679.961312,-8901.300072
2994.931214,-19.142581,-1512.263883,-8843.872330
2994.933811,995.414202,38.285162,-8863.014910
2994.936408,-2431.107762,1454.836141,-9016.155557
2994.939005,-2603.390989,-497.707101,-9341.579430
2994.941602,-995.414202,1512.263883,-9188.438784
2994.944199,-3503.092286,-2603.390989,-9016.155557
2994.946796,-842.273555,382.851616,-9016.155557
2994.949393,-2009.970984,574.277424,-8805.587168
2994.951990,-1607.976787,19.142581,-9035.298138
2994.954586,-2986.242605,-325.423874,-8997.012976
2994.957182,-1741.974853,-1933.400661,-9073.583299
2994.959778,-38.285162,650.847747,-8958.727814
2994.962375,-1263.410333,-1646.261949,-9016.155557
2994.964971,229.710970,516.849682,-8939.585234
2994.967567,-2373.680019,-421.136778,-8920.442653
2994.970163,-497.707101,746.560651,-9092.725880
2994.972759,-976.271621,-153.140646,-9016.155557
2994.975355,-2163.111630,-3292.523898,-9016.155557
2994.977951,-1205.982590,114.855485,-8843.872330
2994.980547,-2067.398726,325.423874,-9035.298138
2994.983143,2086.541307,3483.949706,-9111.868461
2994.985739,-1014.556782,-248.853550,-9188.438784
2994.988335,1895.115499,535.992262,-9245.866526
2994.990931,-555.134843,-1282.552914,-9226.723946
2994.993527,612.562586,95.712904,-9207.581365
2994.996124,-1129.412267,229.710970,-8786.444587
2994.998720,-1129.412267,1493.121302,-8863.014910
2995.001316,76.570323,1818.545176,-9188.438784
2995.003912,-899.701298,-650.847747,-9360.722011
2995.006508,1627.119368,1454.836141,-9303.294269
2995.009104,-19.142581,-95.712904,-9131.011042
2995.011700,1550.549045,937.986459,-8997.012976
2995.014296,-995.414202,-459.421939,-9016.155557
2995.016892,-669.990328,1244.267752,-9226.723946
2995.019488,-172.283227,-784.845813,-8863.014910
2995.022084,1014.556782,-1646.261949,-8805.587168
2995.024680,1761.117434,1512.263883,-8939.585234
2995.027276,-2565.105827,76.570323,-9188.438784
2995.029873,555.134843,-497.707101,-9016.155557
2995.032469,1856.830338,1244.267752,-8748.159426
2995.035065,-172.283227,-708.275490,-9016.155557
2995.037661,-191.425808,1627.119368,-9265.009107
2995.040257,-325.423874,19.142581,-9073.583299
2995.042853,650.847747,-76.570323,-9111.868461
2995.045449,1435.693560,1971.685822,-8901.300072
2995.048045,-650.847747,57.427742,-9418.149754
2995.050641,-248.853550,1627.119368,-9150.153622
2995.053237,-727.418070,-937.986459,-9111.868461
2995.055833,-210.568389,382.851616,-9131.011042
2995.058427,-1780.260014,-153.140646,-9073.583299
2995.061020,-459.421939,937.986459,-9035.298138
2995.063614,-95.712904,1569.691626,-9303.294269
2995.066207,823.130974,133.998066,-9360.722011
2995.068801,-976.271621,-1359.123237,-8920.442653
2995.071394,-306.281293,1531.406464,-8939.585234
2995.073988,-1550.549045,-880.558717,-9073.583299
2995.076581,-1397.408398,-114.855485,-8843.872330
2995.079175,-3522.234867,-2297.109696,-8901.300072
2995.081768,-1282.552914,650.847747,-9092.725880
2995.084362,-1359.123237,-57.427742,-9245.866526
2995.086956,459.421939,937.986459,-9016.155557
2995.089549,-114.855485,-172.283227,-8920.442653
2995.092143,-1607.976787,-2143.969050,-8958.727814
2995.094736,-1665.404530,-1416.550979,-8977.870395
2995.097330,-2373.680019,-401.994197,-9035.298138
2995.099923,-1282.552914,1320.838075,-9073.583299
2995.102517,-727.418070,57.427742,-9016.155557
2995.105110,-1129.412267,-191.425808,-9226.723946
2995.107704,-1091.127106,-1627.119368,-9073.583299
2995.110297,-2718.246474,1148.554848,-9322.436850
2995.112891,-1550.549045,-861.416136,-9169.296203
2995.115484,823.130974,-248.853550,-8480.163294
2995.118078,1244.267752,-3043.670347,-8767.302006
2995.120671,1167.697429,344.566454,-9150.153622
2995.123265,-2220.539373,-1359.123237,-8863.014910
2995.125858,-1454.836141,1301.695494,-8958.727814
2995.128452,-3388.236802,-421.136778,-8824.729749
2995.131045,-267.996131,-172.283227,-8997.012976
2995.133639,-1473.978722,-918.843878,-8997.012976
2995.136232,-1531.406464,-1588.834206,-9092.725880
2995.138826,-1703.689691,0.000000,-8977.870395
2995.141418,-1799.402595,-861.416136,-9111.868461
2995.144010,-95.712904,1091.127106,-8901.300072
2995.146602,-1129.412267,-650.847747,-8939.585234
2995.149195,-306.281293,-1416.550979,-9016.155557
2995.151787,-2890.529701,-2297.109696,-9035.298138
2995.154379,-1895.115499,-957.129040,-8977.870395
2995.156971,-1435.693560,3311.666478,-9054.440718
2995.159563,-1148.554848,210.568389,-9131.011042
2995.162156,2565.105827,1684.547110,-8939.585234
2995.164748,784.845813,-3120.240670,-9265.009107
2995.167340,2316.252277,1435.693560,-9188.438784
2995.169932,-1301.695494,-191.425808,-9150.153622
2995.172524,-1588.834206,1933.400661,-8843.872330
2995.175116,-2105.683888,612.562586,-8939.585234
2995.177709,57.427742,459.421939,-9303.294269
2995.180301,918.843878,57.427742,-9322.436850
2995.182893,1186.840010,957.129040,-9092.725880
2995.185485,708.275490,650.847747,-9092.725880
2995.188077,38.285162,363.709035,-8997.012976
2995.190670,-191.425808,363.709035,-8901.300072
2995.193262,-1761.117434,497.707101,-9111.868461
2995.195854,133.998066,2373.680019,-9360.722011
2995.198446,-4192.225195,1167.697429,-8977.870395
2995.201038,2182.254211,631.705166,-8901.300072
2995.203631,-1512.263883,1971.685822,-8901.300072
2995.206223,-3235.096155,-1818.545176,-9513.862658
2995.208815,2947.957443,3962.514226,-8843.872330
2995.211407,-1741.974853,-2852.244539,-9418.149754
2995.213999,2124.826469,2756.531635,-9092.725880
2995.216592,-1416.550979,-937.986459,-9150.153622
2995.219184,19.142581,0.000000,-9265.009107
2995.221776,765.703232,2316.252277,-8920.442653
2995.224368,-440.279358,-1129.412267,-9207.581365
2995.226960,19.142581,1493.121302,-9131.011042
2995.229553,-1952.543242,-1607.976787,-9111.868461
2995.232145,421.136778,1761.117434,-9131.011042
2995.234737,-1052.841944,459.421939,-8958.727814
2995.237329,1320.838075,306.281293,-9245.866526
2995.239921,708.275490,-669.990328,-9054.440718
2995.242514,-1856.830338,-229.710970,-9131.011042
2995.245054,267.996131,1512.263883,-9016.155557
2995.247595,-2986.242605,-1454.836141,-8882.157491
2995.250136,-1244.267752,-1493.121302,-8977.870395
2995.252677,-2852.244539,-976.271621,-8939.585234
2995.255218,-1225.125171,-382.851616,-9150.153622
2995.257759,133.998066,2086.541307,-9169.296203
2995.260300,-1244.267752,-440.279358,-9092.725880
2995.262841,248.853550,-861.416136,-8977.870395
2995.265382,-1741.974853,-2526.820666,-8901.300072
2995.267922,-1378.265818,-842.273555,-8939.585234
2995.270463,-2833.101958,1014.556782,-8958.727814
2995.273004,-1990.828403,76.570323,-9092.725880
2995.275545,-267.996131,-57.427742,-9092.725880
2995.278086,-1435.693560,-1110.269686,-9207.581365
2995.280627,-1933.400661,-1320.838075,-9035.298138
2995.283168,2660.818731,38.285162,-9073.583299
2995.285709,-3828.516160,1895.115499,-9073.583299
2995.288250,-2354.537438,-5053.641331,-9131.011042
2995.290790,2833.101958,4115.654872,-8805.587168
2995.293331,-3771.088418,-4709.074877,-9226.723946
2995.295872,-746.560651,1799.402595,-8901.300072
2995.298413,-3388.236802,-650.847747,-8958.727814
2995.300954,-1933.400661,-899.701298,-9035.298138
2995.303495,-918.843878,38.285162,-8939.585234
2995.306036,-2316.252277,-3426.521963,-9111.868461
2995.308577,-133.998066,1052.841944,-8863.014910
2995.311118,-1129.412267,-497.707101,-8958.727814
2995.313659,-421.136778,574.277424,-8958.727814
2995.316199,-1148.554848,-784.845813,-8977.870395
2995.318740,-1933.400661,-2871.387120,-9111.868461
2995.321281,-2392.822600,-2105.683888,-9073.583299
2995.323822,-1378.265818,1588.834206,-9016.155557
2995.326363,918.843878,4364.508422,-9284.151688
2995.328904,-2947.957443,-267.996131,-9226.723946
2995.331445,2507.678085,574.277424,-8977.870395
2995.333986,727.418070,-478.564520,-9379.864592
2995.336527,861.416136,-114.855485,-9399.007173
2995.339067,-76.570323,631.705166,-8805.587168
2995.341608,-2029.113565,1550.549045,-8690.731683
2995.344149,-1895.115499,325.423874,-9111.868461
2995.346699,-765.703232,-95.712904,-9265.009107
2995.349250,1071.984525,669.990328,-9284.151688
2995.351800,1014.556782,1167.697429,-9245.866526
2995.354350,842.273555,382.851616,-9092.725880
2995.356901,133.998066,-593.420005,-8805.587168
2995.359451,-1665.404530,1435.693560,-9016.155557
2995.362001,-1167.697429,1761.117434,-9226.723946
2995.364551,-1167.697429,-2833.101958,-9322.436850
2995.367102,4173.082614,3388.236802,-8901.300072
2995.369652,-6221.338760,-1148.554848,-8882.157491
2995.372202,-4747.360038,-2928.814862,-9360.722011
2995.374753,3464.807125,4402.793584,-9284.151688
2995.377303,-1761.117434,-3024.527766,-9647.860723
2995.379853,2431.107762,2335.394858,-8939.585234
2995.382404,-669.990328,-421.136778,-9035.298138
2995.384954,2009.970984,1990.828403,-9169.296203
2995.387504,-976.271621,708.275490,-8939.585234
2995.390054,-114.855485,-957.129040,-9265.009107
2995.392605,-248.853550,1761.117434,-9188.438784
2995.395155,-1225.125171,-861.416136,-9169.296203
2995.397705,440.279358,1875.972918,-9054.440718
2995.400256,-1148.554848,765.703232,-9054.440718
2995.402806,1416.550979,669.990328,-9150.153622
2995.405356,-19.142581,-1320.838075,-8920.442653
2995.407907,-382.851616,1071.984525,-9131.011042
2995.410457,-1837.687757,-478.564520,-8939.585234
2995.413007,-2182.254211,-574.277424,-8901.300072
2995.415557,-3101.098090,-1646.261949,-9035.298138
2995.418108,-2488.535504,-191.425808,-9016.155557
2995.420658,-1167.697429,-57.427742,-9131.011042
2995.423208,-153.140646,1339.980656,-9111.868461
2995.425759,-344.566454,-95.712904,-8997.012976
2995.428309,-555.134843,-1320.838075,-8939.585234
2995.430859,-1646.261949,-1990.828403,-8958.727814
2995.433410,-2067.398726,-440.279358,-8920.442653
2995.435960,-2086.541307,1837.687757,-8920.442653
2995.438510,-2584.248408,325.423874,-9150.153622
2995.441061,-555.134843,-1435.693560,-9035.298138
2995.443611,114.855485,-3790.230998,-9131.011042
2995.446161,1818.545176,1780.260014,-8767.302006
2995.448719,-4536.791650,57.427742,-9092.725880
2995.451277,1397.408398,-2909.672282,-8958.727814
2995.453835,2143.969050,4173.082614,-8843.872330
2995.456393,-4747.360038,-5666.203917,-9226.723946
2995.458951,497.707101,3732.803256,-8633.303941
2995.461509,-4345.365842,-3751.945837,-9016.155557
2995.464067,1359.123237,2775.674216,-8939.585234
2995.466624,-3637.090352,-3598.805190,-8863.014910
2995.469182,-1856.830338,-1684.547110,-9245.866526
2995.471740,-1339.980656,248.853550,-9073.583299
2995.474298,-612.562586,-535.992262,-9111.868461
2995.476856,229.710970,1588.834206,-8920.442653
2995.479414,-1339.980656,-861.416136,-8805.587168
2995.481972,-2737.389054,-1722.832272,-8920.442653
2995.484530,-2488.535504,-2488.535504,-9035.298138
2995.487088,-1148.554848,1818.545176,-9169.296203
2995.489646,248.853550,1607.976787,-9322.436850
2995.492204,153.140646,1722.832272,-9035.298138
2995.494762,497.707101,-1914.258080,-9054.440718
2995.497319,1320.838075,153.140646,-9245.866526
2995.499877,478.564520,-382.851616,-9322.436850
2995.502435,-325.423874,1282.552914,-8958.727814
2995.504993,-1550.549045,1473.978722,-8767.302006
2995.507551,-1129.412267,574.277424,-9035.298138
2995.510109,-918.843878,-287.138712,-9360.722011
2995.512667,1397.408398,421.136778,-9284.151688
2995.515225,1473.978722,1282.552914,-9169.296203
2995.517783,440.279358,708.275490,-9169.296203
2995.520341,191.425808,-1014.556782,-8767.302006
2995.522899,-1933.400661,-19.142581,-9016.155557
2995.525457,842.273555,-1684.547110,-8901.300072
2995.528014,4479.363907,1837.687757,-9092.725880
2995.530572,-2354.537438,-1607.976787,-8729.016845
2995.533130,2354.537438,1550.549045,-8269.594906
2995.535688,-1971.685822,153.140646,-9322.436850
2995.538246,535.992262,516.849682,-9647.860723
2995.540804,1263.410333,1091.127106,-9303.294269
2995.543362,1033.699363,-401.994197,-9169.296203
2995.545920,1033.699363,2775.674216,-8977.870395
2995.548478,-1473.978722,-1129.412267,-8977.870395
2995.550999,0.000000,861.416136,-9131.011042
2995.553521,-1512.263883,-727.418070,-9169.296203
2995.556042,-191.425808,1014.556782,-9303.294269
2995.558564,-1052.841944,1244.267752,-9092.725880
2995.561085,421.136778,995.414202,-9092.725880
2995.563607,631.705166,401.994197,-9169.296203
2995.566128,-1071.984525,-1761.117434,-9016.155557
2995.568650,880.558717,1971.685822,-8977.870395
2995.571172,-2660.818731,-1607.976787,-9016.155557
2995.573693,-1512.263883,880.558717,-8977.870395
2995.576215,-4632.504554,-3388.236802,-9073.583299
2995.578736,-1071.984525,1282.552914,-9054.440718
2995.581258,-1512.263883,-1129.412267,-9054.440718
2995.583779,727.418070,497.707101,-9035.298138
2995.586301,57.427742,153.140646,-8958.727814
2995.588822,-1359.123237,-2124.826469,-8997.012976
2995.591344,-1512.263883,-1703.689691,-9035.298138
2995.593865,-2297.109696,-650.847747,-8939.585234
2995.596387,-1435.693560,1684.547110,-8939.585234
2995.598908,-2488.535504,1225.125171,-9169.296203
2995.601430,-401.994197,-1205.982590,-8977.870395
2995.603951,823.130974,-995.414202,-8863.014910
2995.606473,-3139.383251,-631.705166,-9016.155557
2995.608994,-2335.394858,1148.554848,-9456.434915
2995.611516,-535.992262,-267.996131,-9303.294269
2995.614038,287.138712,-1014.556782,-8901.300072
2995.616559,-1895.115499,-1665.404530,-8767.302006
2995.619081,-2143.969050,-325.423874,-8863.014910
2995.621602,-2105.683888,-612.562586,-9226.723946
2995.624124,-1722.832272,-899.701298,-9111.868461
2995.626645,-2182.254211,-421.136778,-8958.727814
2995.629167,-1359.123237,-1033.699363,-9054.440718
2995.631688,-287.138712,478.564520,-9111.868461
2995.634210,-287.138712,306.281293,-9169.296203
2995.636731,-325.423874,0.000000,-8939.585234
2995.639253,-3024.527766,-2718.246474,-8977.870395
2995.641774,-2450.250342,-2048.256146,-8748.159426
2995.644296,-2182.254211,1646.261949,-9150.153622
2995.646817,1435.693560,3024.527766,-9571.290400
2995.649339,-1129.412267,823.130974,-9245.866526
2995.651874,1856.830338,-95.712904,-9016.155557
2995.654408,287.138712,-1416.550979,-9073.583299
2995.656943,1129.412267,306.281293,-9245.866526
2995.659477,-210.568389,555.134843,-8939.585234
2995.662012,-2029.113565,1014.556782,-8977.870395
2995.664546,-1703.689691,746.560651,-9092.725880
2995.667081,-1225.125171,-574.277424,-9226.723946
2995.669616,1473.978722,593.420005,-9226.723946
2995.672150,842.273555,1110.269686,-9265.009107
2995.674685,1110.269686,191.425808,-9131.011042
2995.677219,172.283227,1512.263883,-9131.011042
2995.679754,-784.845813,-976.271621,-8690.731683
2995.682288,248.853550,2565.105827,-9360.722011
2995.684823,-2201.396792,-478.564520,-9628.718142
2995.687358,1339.980656,344.566454,-8671.589102
2995.689892,76.570323,1378.265818,-8346.165229
2995.692427,-2813.959378,-746.560651,-9399.007173
2995.694961,1129.412267,1856.830338,-9513.862658
2995.697496,1282.552914,-574.277424,-9552.147819
2995.700031,2584.248408,2067.398726,-8997.012976
2995.702565,-440.279358,1033.699363,-8901.300072
2995.705100,-631.705166,-727.418070,-9131.011042
2995.707634,19.142581,784.845813,-8901.300072
2995.710169,-1014.556782,-574.277424,-9188.438784
2995.712703,-401.994197,995.414202,-9169.296203
2995.715238,114.855485,957.129040,-9111.868461
2995.717773,1416.550979,516.849682,-9245.866526
2995.720307,957.129040,-1052.841944,-8939.585234
2995.722842,-2105.683888,38.285162,-8958.727814
2995.725376,459.421939,708.275490,-9035.298138
2995.727911,-2775.674216,-516.849682,-8939.585234
2995.730445,-2469.392923,-2163.111630,-8939.585234
2995.732980,-2124.826469,-76.570323,-8939.585234
2995.735515,-2124.826469,-784.845813,-9073.583299
2995.738049,497.707101,2009.970984,-9016.155557
2995.740584,-1473.978722,-746.560651,-9054.440718
2995.743118,114.855485,-861.416136,-9016.155557
2995.745653,-1550.549045,-2239.681954,-8939.585234
2995.748187,-1627.119368,-937.986459,-8977.870395
2995.750722,-2660.818731,459.421939,-8958.727814
2995.753267,-2277.967115,976.271621,-9054.440718
2995.755811,-803.988394,-1129.412267,-9169.296203
2995.758355,382.851616,-1875.972918,-8977.870395
2995.760900,-210.568389,-210.568389,-8824.729749
2995.763444,-2124.826469,-2450.250342,-8843.872330
2995.765989,2086.541307,1339.980656,-9188.438784
2995.768533,-2794.816797,-57.427742,-9437.292334
2995.771078,-1665.404530,-57.427742,-8729.016845
2995.773622,-1971.685822,-363.709035,-8767.302006
2995.776167,-3273.381317,-1780.260014,-9226.723946
2995.778711,-995.414202,459.421939,-9035.298138
2995.781255,-2411.965181,-1397.408398,-8939.585234
2995.783800,-842.273555,191.425808,-9111.868461
2995.786344,-1052.841944,-650.847747,-9111.868461
2995.788889,421.136778,478.564520,-9092.725880
2995.791433,-133.998066,-899.701298,-8939.585234
2995.793978,-2067.398726,-1071.984525,-8767.302006
2995.796522,-3369.094221,-1129.412267,-8843.872330
2995.799067,-1225.125171,2813.959378,-9150.153622
2995.801611,1071.984525,842.273555,-9399.007173
2995.804155,1397.408398,1761.117434,-9188.438784
2995.806700,1033.699363,-1531.406464,-9169.296203
2995.809244,746.560651,287.138712,-9150.153622
2995.811789,0.000000,76.570323,-9169.296203
2995.814333,-1856.830338,1569.691626,-8901.300072
2995.816878,-727.418070,995.414202,-9073.583299
2995.819422,-899.701298,133.998066,-9131.011042
2995.821967,-631.705166,38.285162,-9226.723946
2995.824511,803.988394,784.845813,-9265.009107
2995.827055,1397.408398,1301.695494,-9207.581365
2995.829600,899.701298,1205.982590,-9226.723946
2995.832144,38.285162,-57.427742,-8690.731683
2995.834689,267.996131,1091.127106,-8920.442653
2995.837233,-459.421939,57.427742,-9341.579430
2995.839778,-459.421939,650.847747,-9399.007173
2995.842322,-1933.400661,842.273555,-8901.300072
2995.844867,574.277424,248.853550,-8461.020714
2995.847411,19.142581,191.425808,-9322.436850
2995.849955,899.701298,555.134843,-9724.431046
2995.852500,1033.699363,880.558717,-9111.868461
2995.855053,172.283227,957.129040,-8939.585234
2995.857605,-669.990328,459.421939,-8977.870395
2995.860158,-95.712904,229.710970,-8997.012976
2995.862711,-1263.410333,-133.998066,-9092.725880
2995.865264,-957.129040,440.279358,-9226.723946
2995.867816,325.423874,1301.695494,-9131.011042
2995.870369,937.986459,421.136778,-9131.011042
2995.872922,555.134843,-861.416136,-9150.153622
2995.875475,-1282.552914,918.843878,-8939.585234
2995.878028,-1052.841944,-248.853550,-8901.300072
2995.880580,-2488.535504,-210.568389,-8939.585234
2995.883133,-2794.816797,-2354.537438,-9150.153622
2995.885686,-2067.398726,-191.425808,-8977.870395
2995.888239,-2029.113565,-382.851616,-9035.298138
2995.890791,287.138712,1167.697429,-9092.725880
2995.893344,-1014.556782,-497.707101,-9035.298138
2995.895897,172.283227,-1244.267752,-9054.440718
2995.898450,-1875.972918,-2067.398726,-8977.870395
2995.901003,-2105.683888,-957.129040,-8882.157491
2995.903555,-1933.400661,1014.556782,-8805.587168
2995.906108,-2833.101958,-459.421939,-8997.012976
2995.908661,574.277424,-287.138712,-9035.298138
2995.911214,1607.976787,2220.539373,-9016.155557
2995.913766,-6642.475538,-1186.840010,-9054.440718
2995.916319,38.285162,-2163.111630,-8767.302006
2995.918872,1990.828403,2813.959378,-9188.438784
2995.921425,-3924.229064,-3426.521963,-9188.438784
2995.923977,-267.996131,1148.554848,-8595.018779
2995.926530,-4115.654872,-2411.965181,-8901.300072
2995.929083,-1301.695494,-899.701298,-9169.296203
2995.931636,-1550.549045,1435.693560,-8882.157491
2995.934189,-1761.117434,-2526.820666,-9188.438784
2995.936741,-363.709035,1569.691626,-8748.159426
2995.939294,-401.994197,-995.414202,-9054.440718
2995.941847,459.421939,153.140646,-9016.155557
2995.944400,-3177.668413,-2143.969050,-8958.727814
2995.946952,-2029.113565,-1225.125171,-8939.585234
2995.949505,-2545.963246,1990.828403,-8977.870395
2995.952058,1435.693560,1397.408398,-9245.866526
2995.954611,57.427742,1588.834206,-9207.581365
2995.957170,1205.982590,-1091.127106,-9226.723946
2995.959730,1473.978722,727.418070,-9092.725880
2995.962290,38.285162,-382.851616,-9131.011042
2995.964850,-114.855485,1186.840010,-8939.585234
2995.967409,-1397.408398,957.129040,-9016.155557
2995.969969,-1282.552914,535.992262,-9169.296203
2995.972529,-459.421939,382.851616,-9169.296203
2995.975088,267.996131,516.849682,-9188.438784
2995.977648,765.703232,1301.695494,-9265.009107
2995.980208,1607.976787,325.423874,-9073.583299
2995.982767,-669.990328,382.851616,-8939.585234
2995.985327,-3177.668413,-516.849682,-9073.583299
2995.987887,861.416136,-516.849682,-9437.292334
2995.990447,2373.680019,-153.140646,-9131.011042
2995.993006,803.988394,1091.127106,-8633.303941
2995.995566,-1167.697429,38.285162,-8633.303941
2995.998126,612.562586,497.707101,-9150.153622
2996.000685,1856.830338,1627.119368,-9705.288466
2996.003245,401.994197,114.855485,-9226.723946
2996.005805,727.418070,1990.828403,-8805.587168
2996.008364,-1799.402595,-172.283227,-9092.725880
2996.010924,-401.994197,-344.566454,-9016.155557
2996.013484,-210.568389,727.418070,-9035.298138
2996.016044,-880.558717,803.988394,-9303.294269
2996.018603,19.142581,1607.976787,-9303.294269
2996.021163,1091.127106,-191.425808,-9131.011042
2996.023723,-363.709035,-746.560651,-9054.440718
2996.026282,191.425808,1761.117434,-8939.585234
2996.028842,-2354.537438,-1914.258080,-8843.872330
2996.031402,-1301.695494,-153.140646,-8920.442653
2996.033961,-3694.518094,-2297.109696,-9131.011042
2996.036521,-1952.543242,995.414202,-9169.296203
2996.039081,-1569.691626,-133.998066,-9073.583299
2996.041641,421.136778,1014.556782,-8939.585234
2996.044200,95.712904,-267.996131,-8997.012976
2996.046760,-1397.408398,-2469.392923,-9073.583299
2996.049320,-1531.406464,-995.414202,-8997.012976
2996.051879,-2909.672282,76.570323,-8920.442653
2996.054439,-995.414202,612.562586,-8767.302006
2996.056999,-3139.383251,-727.418070,-9265.009107
2996.059529,880.558717,-1493.121302,-9092.725880
2996.062060,1339.980656,-19.142581,-8748.159426
2996.064591,-3235.096155,-325.423874,-9092.725880
2996.067122,-440.279358,-57.427742,-9131.011042
2996.069652,76.570323,727.418070,-8939.585234
2996.072183,-3388.236802,-2986.242605,-9150.153622
2996.074714,-1129.412267,248.853550,-8499.305875
2996.077245,-3349.951640,-2679.961312,-8901.300072
2996.079775,-76.570323,2258.824534,-9188.438784
2996.082306,-1397.408398,95.712904,-8939.585234
2996.084837,-957.129040,-727.418070,-9016.155557
2996.087367,-708.275490,440.279358,-8977.870395
2996.089898,-153.140646,-1282.552914,-9016.155557
2996.092429,-2163.111630,-1627.119368,-8920.442653
2996.094960,-2833.101958,-1301.695494,-8863.014910
2996.097490,-1052.841944,2699.103893,-8997.012976
2996.100021,363.709035,784.845813,-9188.438784
2996.102552,2354.537438,2086.541307,-9131.011042
2996.105082,95.712904,-2392.822600,-9303.294269
2996.107613,2258.824534,1397.408398,-9150.153622
2996.110144,-248.853550,-440.279358,-9150.153622
2996.112675,-248.853550,1856.830338,-8863.014910
2996.115205,-1741.974853,823.130974,-9016.155557
2996.117736,-1684.547110,287.138712,-9207.581365
2996.120267,-325.423874,497.707101,-9207.581365
2996.122798,497.707101,650.847747,-9207.581365
2996.125328,1416.550979,401.994197,-9150.153622
2996.127859,689.132909,1646.261949,-9265.009107
2996.130390,-1818.545176,1091.127106,-8824.729749
2996.132920,-1512.263883,-842.273555,-8977.870395
2996.135451,708.275490,440.279358,-9379.864592
2996.137982,784.845813,516.849682,-9437.292334
2996.140513,-1416.550979,2392.822600,-8882.157491
2996.143043,-95.712904,497.707101,-8709.874264
2996.145574,1531.406464,478.564520,-9399.007173
2996.148105,1014.556782,-382.851616,-9724.431046
2996.150636,1014.556782,1665.404530,-9303.294269
2996.153166,-803.988394,172.283227,-8863.014910
2996.155697,-229.710970,957.129040,-9016.155557
2996.158228,-1263.410333,-133.998066,-9188.438784
2996.160769,-861.416136,172.283227,-9131.011042
2996.163310,57.427742,1875.972918,-9322.436850
2996.165852,287.138712,-248.853550,-9360.722011
2996.168393,880.558717,-535.992262,-9016.155557
2996.170935,-995.414202,1091.127106,-8958.727814
2996.173476,-1607.976787,-823.130974,-9035.298138
2996.176017,-2469.392923,267.996131,-8824.729749
2996.178559,-4383.651003,-3407.379382,-9169.296203
2996.181100,-1167.697429,1339.980656,-9073.583299
2996.183642,-2124.826469,-650.847747,-9111.868461
2996.186183,153.140646,1225.125171,-8920.442653
2996.188724,-1167.697429,-784.845813,-8997.012976
2996.191266,-229.710970,-1627.119368,-8977.870395
2996.193807,-1512.263883,-1856.830338,-9035.298138
2996.196349,-1875.972918,-421.136778,-9073.583299
2996.198890,-1282.552914,306.281293,-8767.302006
2996.201431,-1761.117434,-1167.697429,-9073.583299
2996.203973,3273.381317,516.849682,-8997.012976
2996.206514,-3120.240670,-2335.394858,-8939.585234
2996.209055,-306.281293,1741.974853,-8939.585234
2996.211597,-2775.674216,-38.285162,-8958.727814
2996.214138,-1895.115499,-1129.412267,-9590.432981
2996.216680,-248.853550,1033.699363,-8843.872330
2996.219221,-4134.797453,-2622.533570,-8882.157491
2996.221762,-976.271621,612.562586,-9016.155557
2996.224304,-3139.383251,-1493.121302,-9207.581365
2996.226845,516.849682,1091.127106,-9131.011042
2996.229387,-1454.836141,-172.283227,-8824.729749
2996.231928,248.853550,0.000000,-9035.298138
2996.234469,-1320.838075,-1971.685822,-8939.585234
2996.237011,-2316.252277,-2373.680019,-8843.872330
2996.239552,-1550.549045,1397.408398,-8901.300072
2996.242093,-1761.117434,2641.676150,-9207.581365
2996.244635,478.564520,593.420005,-9207.581365
2996.247176,1531.406464,172.283227,-9207.581365
2996.249718,1167.697429,-1646.261949,-9169.296203
2996.252259,1091.127106,574.277424,-9188.438784
2996.254800,229.710970,861.416136,-9054.440718
2996.257342,-1493.121302,1569.691626,-8882.157491
2996.259883,-1416.550979,210.568389,-9150.153622
2996.262434,-459.421939,325.423874,-9284.151688
2996.264984,-574.277424,172.283227,-9303.294269
2996.267535,1512.263883,2201.396792,-9226.723946
2996.270085,-57.427742,727.418070,-9265.009107
2996.272636,1435.693560,1282.552914,-9092.725880
2996.275186,-1607.976787,861.416136,-8882.157491
2996.277737,-3196.810994,-114.855485,-9169.296203
2996.280287,3311.666478,1282.552914,-9245.866526
2996.282838,-612.562586,1225.125171,-9016.155557
2996.285388,-746.560651,-210.568389,-8824.729749
2996.287939,1435.693560,2411.965181,-8882.157491
2996.290489,19.142581,-1454.836141,-9590.432981
2996.293040,2182.254211,1493.121302,-9341.579430
2996.295590,-708.275490,899.701298,-8920.442653
2996.298141,-497.707101,382.851616,-9016.155557
2996.300691,-1071.984525,1473.978722,-8997.012976
2996.303242,-1301.695494,-57.427742,-9226.723946
2996.305792,421.136778,1761.117434,-9150.153622
2996.308343,842.273555,-229.710970,-9399.007173
2996.310893,1205.982590,-210.568389,-9016.155557
2996.313444,-937.986459,746.560651,-8824.729749
2996.315994,-1225.125171,-1052.841944,-8997.012976
2996.318545,-2679.961312,-172.283227,-8786.444587
2996.321095,-3617.947771,-2603.390989,-8958.727814
2996.323646,-1665.404530,727.418070,-9073.583299
2996.326196,-1569.691626,-555.134843,-9188.438784
2996.328747,-210.568389,1052.841944,-9035.298138
2996.331297,-650.847747,-937.986459,-8939.585234
2996.333848,-478.564520,-1512.263883,-8958.727814
2996.336398,-1646.261949,-2258.824534,-8901.300072
2996.338949,-1665.404530,-363.709035,-8901.300072
2996.341499,-2660.818731,459.421939,-8901.300072
2996.344056,-1110.269686,191.425808,-8901.300072
2996.346613,-574.277424,-344.566454,-9418.149754
2996.349171,-1071.984525,-918.843878,-9092.725880
2996.351728,-3081.955509,95.712904,-8882.157491
2996.354286,76.570323,-1646.261949,-8882.157491
2996.356843,-1473.978722,-746.560651,-9131.011042
2996.359400,-2450.250342,-708.275490,-8997.012976
2996.361958,-2660.818731,-1282.552914,-8671.589102
2996.364515,-1665.404530,-689.132909,-8824.729749
2996.367072,-1205.982590,823.130974,-9265.009107
2996.369630,-1033.699363,-1512.263883,-8977.870395
2996.372187,-38.285162,1205.982590,-9016.155557
2996.374745,-1014.556782,-1531.406464,-9054.440718
2996.377302,-2316.252277,-1722.832272,-8920.442653
2996.379859,-2737.389054,-1091.127106,-8901.300072
2996.382417,-1703.689691,2182.254211,-8958.727814
2996.384974,287.138712,2775.674216,-9341.579430
2996.387532,-957.129040,19.142581,-9207.581365
2996.390089,1091.127106,-1339.980656,-9303.294269
2996.392646,1761.117434,306.281293,-9265.009107
2996.395204,478.564520,555.134843,-9188.438784
2996.397761,-727.418070,1665.404530,-8805.587168
2996.400318,-1856.830338,1091.127106,-8977.870395
2996.402876,-1703.689691,76.570323,-9131.011042
2996.405433,-191.425808,191.425808,-9207.581365
2996.407991,363.709035,727.418070,-9226.723946
2996.410548,2105.683888,191.425808,-8977.870395
2996.413105,191.425808,1512.263883,-9284.151688
2996.415663,-2354.537438,-459.421939,-8977.870395
2996.418220,1971.685822,133.998066,-8690.731683
2996.420777,669.990328,-861.416136,-9092.725880
2996.423335,1129.412267,1588.834206,-9226.723946
2996.425892,-1588.834206,708.275490,-9188.438784
2996.428450,516.849682,-191.425808,-8958.727814
2996.431007,1359.123237,1014.556782,-9245.866526
2996.433564,1052.841944,38.285162,-9399.007173
2996.436122,153.140646,1895.115499,-9150.153622
2996.438679,-1091.127106,-478.564520,-8997.012976
2996.441237,-516.849682,1052.841944,-8997.012976
2996.443794,-1052.841944,-76.570323,-9073.583299
2996.446357,133.998066,1244.267752,-9226.723946
2996.448921,267.996131,95.712904,-9341.579430
2996.451484,191.425808,-631.705166,-9111.868461
2996.454047,-172.283227,1244.267752,-9054.440718
2996.456610,-1205.982590,-1263.410333,-8882.157491
2996.459174,-2201.396792,95.712904,-8843.872330
2996.461737,-4900.500685,-3445.664544,-8863.014910
2996.464300,-1339.980656,1550.549045,-8977.870395
2996.466864,-1454.836141,-516.849682,-9207.581365
2996.469427,344.566454,1205.982590,-9054.440718
2996.471990,-516.849682,-1320.838075,-8997.012976
2996.474554,-325.423874,-1416.550979,-8958.727814
2996.477117,-1627.119368,-1971.685822,-8939.585234
2996.479680,-2316.252277,535.992262,-8939.585234
2996.482244,-2297.109696,-248.853550,-8805.587168
2996.484807,-957.129040,76.570323,-8939.585234
2996.487370,2163.111630,172.283227,-9035.298138
2996.489934,-1837.687757,-1856.830338,-9054.440718
2996.492497,-401.994197,593.420005,-8595.018779
2996.495060,-2833.101958,-918.843878,-9226.723946
2996.497623,-1014.556782,708.275490,-9035.298138
2996.500187,-2852.244539,-1799.402595,-8977.870395
2996.502750,-2239.681954,-612.562586,-8920.442653
2996.505313,-2699.103893,-363.709035,-8997.012976
2996.507877,-1301.695494,-191.425808,-9284.151688
2996.510440,-401.994197,765.703232,-8997.012976
2996.513003,-555.134843,-574.277424,-8977.870395
2996.515567,-1282.552914,-2067.398726,-9035.298138
2996.518130,-2048.256146,-1952.543242,-8920.442653
2996.520693,-2009.970984,937.986459,-8805.587168
2996.523257,-1627.119368,3292.523898,-9265.009107
2996.525820,-1856.830338,-459.421939,-9284.151688
2996.528383,2909.672282,631.705166,-9092.725880
2996.530946,918.843878,-2067.398726,-9341.579430
2996.533510,1703.689691,746.560651,-9379.864592
2996.536073,-229.710970,861.416136,-8939.585234
2996.538636,-1186.840010,1856.830338,-8843.872330
2996.541200,-2009.970984,401.994197,-8939.585234
2996.543763,-1225.125171,-95.712904,-9265.009107
2996.546326,306.281293,612.562586,-9379.864592
2996.548895,401.994197,2105.683888,-9360.722011
2996.551463,2182.254211,-669.990328,-8958.727814
2996.554031,2373.680019,19.142581,-8958.727814
2996.556599,-3330.809059,976.271621,-8901.300072
2996.559168,-976.271621,-2526.820666,-9245.866526
2996.561736,4575.076811,4019.941968,-8920.442653
2996.564304,-708.275490,-995.414202,-8901.300072
2996.566872,957.129040,2029.113565,-8901.300072
2996.569441,-229.710970,57.427742,-9169.296203
2996.572009,1933.400661,-421.136778,-9399.007173
2996.574577,1761.117434,2105.683888,-9035.298138
2996.577145,-2143.969050,-1378.265818,-9169.296203
2996.579714,-76.570323,3196.810994,-9111.868461
2996.582282,-2067.398726,-727.418070,-8977.870395
2996.584850,1244.267752,784.845813,-9188.438784
2996.587419,459.421939,-210.568389,-9207.581365
2996.589987,-229.710970,-1244.267752,-9111.868461
2996.592555,727.418070,2526.820666,-9035.298138
2996.595123,-2297.109696,-2411.965181,-9035.298138
2996.597692,-1722.832272,344.566454,-8958.727814
2996.600260,-4862.215523,-3273.381317,-8997.012976
2996.602828,-2316.252277,153.140646,-9092.725880
2996.605396,-861.416136,459.421939,-9092.725880
2996.607965,95.712904,382.851616,-9054.440718
2996.610533,-612.562586,-1186.840010,-9035.298138
2996.613101,-153.140646,-1837.687757,-8901.300072
2996.615669,-1167.697429,-1244.267752,-8958.727814
2996.618238,-2871.387120,-459.421939,-8958.727814
2996.620806,-1952.543242,19.142581,-8652.446522
2996.623374,-1875.972918,-1531.406464,-9169.296203
2996.625942,2813.959378,267.996131,-9169.296203
2996.628511,-3866.801322,-1493.121302,-9169.296203
2996.631079,-1148.554848,-1091.127106,-8901.300072
2996.633647,-153.140646,1378.265818,-8863.014910
2996.636216,-3235.096155,-1569.691626,-9265.009107
2996.638784,-2967.100024,114.855485,-8958.727814
2996.641352,-4039.084549,-2813.959378,-8958.727814
2996.643920,-248.853550,995.414202,-9284.151688
2996.646489,-1225.125171,-669.990328,-8977.870395
2996.649057,248.853550,459.421939,-8997.012976
2996.651628,-1550.549045,-1895.115499,-8920.442653
2996.654200,-1531.406464,-1646.261949,-8958.727814
2996.656772,-2565.105827,-1205.982590,-8882.157491
2996.659343,-1320.838075,2469.392923,-8997.012976
2996.661915,344.566454,1473.978722,-9341.579430
2996.664487,248.853550,937.986459,-9073.583299
2996.667058,1205.982590,-1512.263883,-9169.296203
2996.669630,2067.398726,114.855485,-9207.581365
2996.672202,1033.699363,593.420005,-9284.151688
2996.674773,-574.277424,2182.254211,-8882.157491
2996.677345,-1914.258080,1052.841944,-8901.300072
2996.679917,-2086.541307,-210.568389,-9226.723946
2996.682488,-287.138712,57.427742,-9207.581365
2996.685060,1569.691626,937.986459,-9265.009107
2996.687632,574.277424,1282.552914,-9245.866526
2996.690203,1205.982590,1914.258080,-8997.012976
2996.692775,-3120.240670,-803.988394,-8901.300072
2996.695347,-650.847747,-689.132909,-8997.012976
2996.697918,1359.123237,-95.712904,-9265.009107
2996.700490,1167.697429,842.273555,-9207.581365
2996.703062,976.271621,1818.545176,-8863.014910
2996.705633,210.568389,631.705166,-9035.298138
2996.708205,746.560651,-612.562586,-9265.009107
2996.710776,1301.695494,191.425808,-9284.151688
2996.713348,-631.705166,631.705166,-9073.583299
2996.715920,-995.414202,2297.109696,-9016.155557
2996.718491,-880.558717,803.988394,-9092.725880
2996.721063,191.425808,306.281293,-9131.011042
2996.723635,1091.127106,-306.281293,-9245.866526
2996.726206,-1033.699363,-1301.695494,-9207.581365
2996.728778,1378.265818,2584.248408,-8939.585234
2996.731350,-2067.398726,-1952.543242,-8843.872330
2996.733921,-1761.117434,267.996131,-8997.012976
2996.736493,-4689.932296,-3483.949706,-9016.155557
2996.739065,-2086.541307,459.421939,-9111.868461
2996.741636,-1493.121302,287.138712,-9131.011042
2996.744208,-133.998066,803.988394,-9092.725880
2996.746780,-325.423874,-1378.265818,-9073.583299
2996.749351,-574.277424,-1646.261949,-8977.870395
2996.751923,-1186.840010,-1091.127106,-9054.440718
2996.754497,-2660.818731,-95.712904,-8901.300072
2996.757072,-3005.385186,2373.680019,-9035.298138
2996.759646,-4000.799387,-1818.545176,-9360.722011
2996.762221,1761.117434,-2220.539373,-9169.296203
2996.764795,593.420005,363.709035,-8786.444587
2996.767370,-4594.219392,-1148.554848,-9016.155557
2996.769944,-1397.408398,1454.836141,-8997.012976
2996.772519,-3158.525832,-2316.252277,-9035.298138
2996.775093,-880.558717,363.709035,-8843.872330
2996.777668,-1263.410333,287.138712,-8843.872330
2996.780242,-2258.824534,-1359.123237,-9341.579430
2996.782817,133.998066,1971.685822,-9207.581365
2996.785391,-803.988394,-1703.689691,-8977.870395
2996.787966,-1569.691626,-1301.695494,-8786.444587
2996.790540,-2488.535504,-1856.830338,-8939.585234
2996.793115,-1569.691626,1359.123237,-9035.298138
2996.795689,650.847747,3847.658741,-9265.009107
2996.798264,-1856.830338,57.427742,-9341.579430
2996.800838,1493.121302,-363.709035,-9073.583299
2996.803413,1359.123237,-440.279358,-9150.153622
2996.805987,1071.984525,95.712904,-9379.864592
2996.808562,593.420005,1263.410333,-9054.440718
2996.811136,-1378.265818,1205.982590,-8977.870395
2996.813711,-1856.830338,593.420005,-8958.727814
2996.816285,-784.845813,325.423874,-9111.868461
2996.818860,95.712904,497.707101,-9379.864592
2996.821434,976.271621,2526.820666,-9494.720077
2996.824009,497.707101,1205.982590,-9207.581365
2996.826583,-114.855485,-861.416136,-8824.729749
2996.829158,-172.283227,229.710970,-8729.016845
2996.831732,-287.138712,937.986459,-9226.723946
2996.834306,-1339.980656,1339.980656,-9513.862658
2996.836881,363.709035,1646.261949,-9169.296203
2996.839455,1301.695494,861.416136,-8977.870395
2996.842030,555.134843,-842.273555,-9054.440718
2996.844604,1148.554848,918.843878,-9322.436850
2996.847179,-1205.982590,-248.853550,-9111.868461
2996.849753,306.281293,2029.113565,-9111.868461
2996.852328,-1052.841944,631.705166,-8977.870395
2996.854902,516.849682,-76.570323,-9092.725880
2996.857451,1225.125171,-478.564520,-9111.868461
2996.860000,-1378.265818,-861.416136,-9207.581365
2996.862549,1397.408398,2182.254211,-9073.583299
2996.865098,-2086.541307,-1799.402595,-8824.729749
2996.867647,-1052.841944,-76.570323,-8901.300072
2996.870196,-4594.219392,-2794.816797,-8997.012976
2996.872745,-2124.826469,650.847747,-8977.870395
2996.875294,-1359.123237,918.843878,-9054.440718
2996.877843,-784.845813,287.138712,-9131.011042
2996.880392,172.283227,-1320.838075,-8977.870395
2996.882940,-516.849682,-1588.834206,-9035.298138
2996.885489,-1263.410333,-1588.834206,-8920.442653
2996.888038,-3024.527766,344.566454,-9111.868461
2996.890587,-2182.254211,2794.816797,-8958.727814
2996.893136,-3273.381317,421.136778,-9265.009107
2996.895685,-1914.258080,-2679.961312,-9207.581365
2996.898234,2392.822600,95.712904,-8939.585234
2996.900783,-2220.539373,-1761.117434,-8671.589102
2996.903332,-2143.969050,-153.140646,-9016.155557
2996.905881,-3809.373579,267.996131,-9150.153622
2996.908430,-2392.822600,-1148.554848,-9111.868461
2996.910978,-823.130974,229.710970,-8805.587168
2996.913527,-1799.402595,-1186.840010,-9150.153622
2996.916076,689.132909,593.420005,-9131.011042
2996.918625,-1091.127106,-2067.398726,-8920.442653
2996.921174,-1607.976787,-1646.261949,-8824.729749
2996.923723,-2909.672282,-612.562586,-8920.442653
2996.926272,-727.418070,2622.533570,-9150.153622
2996.928821,191.425808,1033.699363,-9245.866526
2996.931370,1014.556782,937.986459,-9188.438784
2996.933919,631.705166,-1569.691626,-9111.868461
2996.936468,1588.834206,114.855485,-9016.155557
2996.939017,708.275490,784.845813,-9303.294269
2996.941565,-95.712904,2029.113565,-9035.298138
2996.944114,-1129.412267,1052.841944,-9016.155557
2996.946663,-2009.970984,-746.560651,-9054.440718
2996.949212,-497.707101,689.132909,-9035.298138
2996.951761,401.994197,-19.142581,-9111.868461
2996.954310,746.560651,1550.549045,-9494.720077
2996.956859,2986.242605,574.277424,-8920.442653
2996.959414,-1856.830338,-363.709035,-8748.159426
2996.961970,-2048.256146,1301.695494,-9379.864592
2996.964525,-593.420005,133.998066,-9284.151688
2996.967081,1493.121302,1282.552914,-9456.434915
2996.969636,1741.974853,937.986459,-8882.157491
2996.972192,555.134843,-421.136778,-9035.298138
2996.974747,363.709035,593.420005,-9322.436850
2996.977302,-459.421939,-287.138712,-9303.294269
2996.979858,478.564520,1244.267752,-9016.155557
2996.982413,-842.273555,1703.689691,-9111.868461
2996.984969,-382.851616,976.271621,-9035.298138
2996.987524,516.849682,-593.420005,-9131.011042
2996.990080,-861.416136,-708.275490,-9016.155557
2996.992635,957.129040,1454.836141,-9169.296203
2996.995190,-1320.838075,-593.420005,-8882.157491
2996.997746,-1282.552914,-880.558717,-8920.442653
2997.000301,-3771.088418,-2029.113565,-8863.014910
2997.002857,-2392.822600,287.138712,-9054.440718
2997.005412,-2105.683888,-133.998066,-9054.440718
2997.007968,-765.703232,401.994197,-9092.725880
2997.010523,-267.996131,-1301.695494,-8939.585234
2997.013078,-535.992262,-1244.267752,-9073.583299
2997.015634,-1588.834206,-1071.984525,-9226.723946
2997.018189,-1071.984525,-918.843878,-8709.874264
2997.020745,-708.275490,746.560651,-8863.014910
2997.023300,-4364.508422,650.847747,-9418.149754
2997.025856,-1378.265818,-2431.107762,-9265.009107
2997.028411,-727.418070,-1301.695494,-8958.727814
2997.030966,-937.986459,-842.273555,-8843.872330
2997.033522,-1531.406464,-631.705166,-8863.014910
2997.036077,-3445.664544,-421.136778,-9035.298138
2997.038633,-2220.539373,-784.845813,-9054.440718
2997.041188,-1397.408398,114.855485,-8824.729749
2997.043744,-1129.412267,-957.129040,-9054.440718
2997.046299,57.427742,153.140646,-9169.296203
2997.048854,-2431.107762,-1627.119368,-9016.155557
2997.051410,-1722.832272,-1473.978722,-8939.585234
2997.053965,-2105.683888,1684.547110,-8977.870395
2997.056521,153.140646,1454.836141,-9303.294269
2997.059076,-363.709035,1722.832272,-9150.153622
2997.061637,669.990328,-727.418070,-9226.723946
2997.064198,918.843878,-478.564520,-8997.012976
2997.066759,746.560651,95.712904,-9150.153622
2997.069320,650.847747,2009.970984,-9131.011042
2997.071882,-1416.550979,918.843878,-9131.011042
2997.074443,-401.994197,574.277424,-9226.723946
2997.077004,-1569.691626,-287.138712,-9131.011042
2997.079565,57.427742,631.705166,-8977.870395
2997.082126,153.140646,1052.841944,-9131.011042
2997.084687,2316.252277,133.998066,-9437.292334
2997.087248,-1263.410333,535.992262,-8863.014910
2997.089809,-1818.545176,-516.849682,-8901.300072
2997.092370,555.134843,1110.269686,-9322.436850
2997.094931,1320.838075,1627.119368,-9456.434915
2997.097492,727.418070,440.279358,-9207.581365
2997.100053,784.845813,1091.127106,-8882.157491
2997.102615,784.845813,-172.283227,-9169.296203
2997.105176,784.845813,401.994197,-9169.296203
2997.107737,-516.849682,1052.841944,-9073.583299
2997.110298,248.853550,2258.824534,-9073.583299
2997.112859,-1225.125171,976.271621,-9207.581365
2997.115420,267.996131,-727.418070,-9245.866526
2997.117981,-555.134843,-1665.404530,-8882.157491
2997.120542,440.279358,1607.976787,-9131.011042
2997.123103,-1091.127106,-650.847747,-9035.298138
2997.125664,-1359.123237,-306.281293,-8958.727814
2997.128225,-3694.518094,-2450.250342,-8977.870395
2997.130786,-2335.394858,-114.855485,-8977.870395
2997.133347,-1722.832272,-229.710970,-9054.440718
2997.135909,-937.986459,1205.982590,-9073.583299
2997.138470,-287.138712,-708.275490,-8939.585234
2997.141031,-1091.127106,-1301.695494,-8901.300072
2997.143592,-2029.113565,-1952.543242,-9092.725880
2997.146153,-497.707101,-708.275490,-8824.729749
2997.148714,-976.271621,-612.562586,-8920.442653
2997.151275,-1684.547110,1646.261949,-9073.583299
2997.153836,-2737.389054,-3254.238736,-9341.579430
2997.156397,1186.840010,727.418070,-9073.583299
2997.158958,-1741.974853,-2029.113565,-8690.731683
2997.161519,-1550.549045,574.277424,-8843.872330
2997.164085,-3254.238736,593.420005,-9035.298138
2997.166650,-2928.814862,-1818.545176,-9092.725880
2997.169215,-1052.841944,248.853550,-8863.014910
2997.171780,-1320.838075,-1684.547110,-8958.727814
2997.174346,306.281293,669.990328,-9073.583299
2997.176911,-3101.098090,-2163.111630,-9016.155557
2997.179476,-842.273555,-401.994197,-8843.872330
2997.182041,-2239.681954,1473.978722,-9073.583299
2997.184607,708.275490,1665.404530,-9360.722011
2997.187172,-440.279358,1320.838075,-9111.868461
2997.189737,421.136778,-1014.556782,-9207.581365
2997.192303,842.273555,267.996131,-9092.725880
2997.194868,248.853550,229.710970,-9207.581365
2997.197433,918.843878,2029.113565,-9016.155557
2997.199998,-1282.552914,363.709035,-9016.155557
2997.202564,0.000000,287.138712,-9188.438784
2997.205129,-1569.691626,650.847747,-9131.011042
2997.207694,229.710970,-401.994197,-9054.440718
2997.210259,-306.281293,2009.970984,-9303.294269
2997.212825,1339.980656,-1282.552914,-8939.585234
2997.215390,4689.932296,3541.377448,-8882.157491
2997.217955,-7293.323285,-2392.822600,-9245.866526
2997.220520,2143.969050,-1225.125171,-9360.722011
2997.223086,2526.820666,3809.373579,-9265.009107
2997.225651,-248.853550,-2890.529701,-9265.009107
2997.228216,2660.818731,3981.656806,-8786.444587
2997.230782,-2048.256146,-2852.244539,-9226.723946
2997.233347,1895.115499,2890.529701,-9303.294269
2997.235912,-1933.400661,-803.988394,-9150.153622
2997.238477,1014.556782,2699.103893,-9265.009107
2997.241043,38.285162,1167.697429,-9150.153622
2997.243608,-57.427742,-2163.111630,-9073.583299
2997.246173,-497.707101,1780.260014,-8997.012976
2997.248738,-1033.699363,-1569.691626,-9054.440718
2997.251304,-497.707101,1512.263883,-8977.870395
2997.253869,-2737.389054,-3751.945837,-8958.727814
2997.256434,-765.703232,995.414202,-8863.014910
2997.258999,-4402.793584,-1052.841944,-9035.298138
2997.261565,-842.273555,842.273555,-9054.440718
2997.264130,-689.132909,172.283227,-9035.298138
2997.266699,-1263.410333,-2105.683888,-9016.155557
2997.269268,-248.853550,-746.560651,-8958.727814
2997.271837,-1741.974853,-2354.537438,-8863.014910
2997.274406,382.851616,1512.263883,-8786.444587
2997.276975,-4862.215523,267.996131,-9073.583299
2997.279544,-2239.681954,-4326.223261,-9188.438784
2997.282113,1914.258080,2852.244539,-9054.440718
2997.284682,-3579.662610,-4307.080680,-8863.014910
2997.287251,-401.994197,2220.539373,-8709.874264
2997.289820,-5149.354235,-1416.550979,-9092.725880
2997.292389,-708.275490,421.136778,-9226.723946
2997.294958,-2124.826469,-612.562586,-8824.729749
2997.297527,-1684.547110,-2488.535504,-9169.296203
2997.300096,555.134843,287.138712,-8824.729749
2997.302665,-2316.252277,-2373.680019,-9016.155557
2997.305234,-1646.261949,-95.712904,-8843.872330
2997.307803,-1569.691626,1493.121302,-9035.298138
2997.310371,1263.410333,2029.113565,-9245.866526
2997.312940,-1818.545176,861.416136,-9207.581365
2997.315509,1339.980656,-612.562586,-9341.579430
2997.318078,1033.699363,1186.840010,-9054.440718
2997.320647,76.570323,-76.570323,-9150.153622
2997.323216,1473.978722,2584.248408,-8997.012976
2997.325785,-1607.976787,-669.990328,-9016.155557
2997.328354,95.712904,1339.980656,-9169.296203
2997.330923,-2297.109696,-574.277424,-9284.151688
2997.333492,727.418070,1818.545176,-9341.579430
2997.336061,1799.402595,2603.390989,-8997.012976
2997.338630,-1684.547110,497.707101,-9341.579430
2997.341199,-114.855485,1129.412267,-9111.868461
2997.343768,-2622.533570,2277.967115,-9073.583299
2997.346337,-631.705166,-229.710970,-9513.862658
2997.348906,2124.826469,2258.824534,-9188.438784
2997.351475,-267.996131,-1684.547110,-9092.725880
2997.354044,1914.258080,2469.392923,-8843.872330
2997.356613,-727.418070,-344.566454,-9054.440718
2997.359182,344.566454,555.134843,-9437.292334
2997.361751,401.994197,2354.537438,-9092.725880
2997.364320,95.712904,746.560651,-9150.153622
2997.366889,-306.281293,19.142581,-9092.725880
2997.369462,-995.414202,-1493.121302,-9073.583299
2997.372034,57.427742,1148.554848,-8882.157491
2997.374606,-1320.838075,-478.564520,-9035.298138
2997.377178,-880.558717,-497.707101,-9016.155557
2997.379751,-3790.230998,-1799.402595,-8997.012976
2997.382323,-1933.400661,-899.701298,-9111.868461
2997.384895,-1282.552914,191.425808,-9016.155557
2997.387467,-1052.841944,478.564520,-8977.870395
2997.390039,-784.845813,-114.855485,-9035.298138
2997.392612,-1378.265818,-1799.402595,-8901.300072
2997.395184,-1607.976787,-153.140646,-9207.581365
2997.397756,-1186.840010,-267.996131,-8748.159426
2997.400328,-3464.807125,-76.570323,-9111.868461
2997.402901,-306.281293,440.279358,-9188.438784
2997.405473,-1263.410333,-516.849682,-9188.438784
2997.408045,-976.271621,-2048.256146,-8729.016845
2997.410617,-2124.826469,-669.990328,-8843.872330
2997.413190,-3847.658741,-2163.111630,-8977.870395
2997.415762,-1186.840010,1607.976787,-9092.725880
2997.418334,-2775.674216,-1091.127106,-8863.014910
2997.420906,-631.705166,133.998066,-8977.870395
2997.423478,-1435.693560,-1378.265818,-9054.440718
2997.426051,-1129.412267,-1971.685822,-9054.440718
2997.428623,-1512.263883,-803.988394,-8805.587168
2997.431195,-1990.828403,708.275490,-8920.442653
2997.433767,899.701298,2297.109696,-9226.723946
2997.436340,-1052.841944,574.277424,-9226.723946
2997.438912,1703.689691,-459.421939,-9303.294269
2997.441484,-19.142581,-363.709035,-9035.298138
2997.444056,1454.836141,-133.998066,-9265.009107
2997.446629,363.709035,1875.972918,-9035.298138
2997.449201,-861.416136,976.271621,-9035.298138
2997.451773,-784.845813,669.990328,-9188.438784
2997.454345,-1282.552914,-1148.554848,-9245.866526
2997.456917,574.277424,1359.123237,-9265.009107
2997.459490,1110.269686,516.849682,-8805.587168
2997.462062,287.138712,1550.549045,-9207.581365
2997.464634,-2565.105827,191.425808,-9188.438784
2997.467206,-535.992262,229.710970,-9035.298138
2997.469779,1990.828403,574.277424,-8920.442653
2997.472353,516.849682,-172.283227,-9552.147819
2997.474927,1512.263883,1627.119368,-9054.440718
2997.477502,-382.851616,-38.285162,-9016.155557
2997.480076,1167.697429,574.277424,-8958.727814
2997.482651,191.425808,210.568389,-9131.011042
2997.485225,823.130974,1646.261949,-9169.296203
2997.487799,-1014.556782,1473.978722,-9226.723946
2997.490374,95.712904,95.712904,-9188.438784
2997.492948,-1875.972918,-1148.554848,-8958.727814
2997.495523,650.847747,1110.269686,-8977.870395
2997.498097,-1627.119368,-1263.410333,-8997.012976
2997.500671,-995.414202,421.136778,-8939.585234
2997.503246,-3617.947771,-2105.683888,-9035.298138
2997.505820,-2182.254211,-650.847747,-8997.012976
2997.508394,-899.701298,-459.421939,-9054.440718
2997.510969,-459.421939,918.843878,-8958.727814
2997.513543,-1014.556782,-1339.980656,-8901.300072
2997.516118,-1263.410333,-229.710970,-9111.868461
2997.518692,-1359.123237,-3101.098090,-8805.587168
2997.521266,-803.988394,-497.707101,-8958.727814
2997.523841,-1071.984525,2124.826469,-8997.012976
2997.526415,-1186.840010,-765.703232,-9303.294269
2997.528990,-2163.111630,0.000000,-9265.009107
2997.531564,-3196.810994,-2737.389054,-8958.727814
2997.534138,-1359.123237,842.273555,-8786.444587
2997.536713,-2947.957443,-861.416136,-9016.155557
2997.539287,-2086.541307,-191.425808,-8977.870395
2997.541862,-2813.959378,-38.285162,-8977.870395
2997.544436,-689.132909,-574.277424,-9150.153622
2997.547010,-440.279358,-1990.828403,-8958.727814
2997.549585,-861.416136,-1378.265818,-8863.014910
2997.552159,-2545.963246,-19.142581,-8901.300072
2997.554734,-516.849682,2660.818731,-9265.009107
2997.557308,535.992262,57.427742,-9341.579430
2997.559882,689.132909,2009.970984,-9054.440718
2997.562457,-267.996131,-2105.683888,-9284.151688
2997.565031,1339.980656,1339.980656,-9131.011042
2997.567605,-76.570323,861.416136,-9226.723946
2997.570180,-267.996131,1952.543242,-8997.012976
2997.572754,-784.845813,535.992262,-8997.012976
2997.575331,-880.558717,-1359.123237,-9245.866526
2997.577907,114.855485,1014.556782,-9035.298138
2997.580483,-555.134843,937.986459,-9379.864592
2997.583060,-172.283227,3388.236802,-8977.870395
2997.585636,-1071.984525,-1301.695494,-9245.866526
2997.588212,1799.402595,133.998066,-8690.731683
2997.590789,-880.558717,1588.834206,-9169.296203
2997.593365,0.000000,153.140646,-9590.432981
2997.595941,1454.836141,2469.392923,-9265.009107
2997.598518,459.421939,-1569.691626,-9150.153622
2997.601094,1895.115499,2086.541307,-8843.872330
2997.603670,-1320.838075,-1167.697429,-9188.438784
2997.606246,1071.984525,2871.387120,-9360.722011
2997.608823,-612.562586,1282.552914,-9150.153622
2997.611399,325.423874,-229.710970,-9245.866526
2997.613975,-1512.263883,-1110.269686,-8882.157491
2997.616552,267.996131,1569.691626,-8882.157491
2997.619128,-2354.537438,-1818.545176,-9111.868461
2997.621704,-631.705166,1225.125171,-8939.585234
2997.624281,-3273.381317,-3464.807125,-8997.012976
2997.626857,-1971.685822,-784.845813,-9035.298138
2997.629433,-899.701298,210.568389,-9131.011042
2997.632010,-1722.832272,19.142581,-9073.583299
2997.634586,-153.140646,133.998066,-8939.585234
2997.637162,-1531.406464,-1569.691626,-8958.727814
2997.639739,-555.134843,-861.416136,-8882.157491
2997.642315,-3503.092286,-1416.550979,-9016.155557
2997.644891,842.273555,-363.709035,-8824.729749
2997.647468,-172.283227,2411.965181,-9188.438784
2997.650044,-2909.672282,-4594.219392,-9379.864592
2997.652620,1435.693560,3292.523898,-8614.161360
2997.655197,-4938.785846,-5149.354235,-8843.872330
2997.657773,-287.138712,2488.535504,-8748.159426
2997.660349,-4077.369710,-2124.826469,-9054.440718
2997.662926,-516.849682,746.560651,-9054.440718
2997.665502,-382.851616,1148.554848,-9016.155557
2997.668078,-2507.678085,-4039.084549,-9169.296203
2997.670655,-746.560651,95.712904,-8805.587168
2997.673231,-2124.826469,-287.138712,-8882.157491
2997.675807,38.285162,3120.240670,-9150.153622
2997.678385,-287.138712,76.570323,-9418.149754
2997.680962,803.988394,1454.836141,-9131.011042
2997.683540,-401.994197,-1761.117434,-9226.723946
2997.686117,1722.832272,1397.408398,-9245.866526
2997.688695,-363.709035,1397.408398,-9131.011042
2997.691272,-344.566454,1225.125171,-8939.585234
2997.693849,-765.703232,918.843878,-8901.300072
2997.696427,-689.132909,-1167.697429,-9207.581365
2997.699004,555.134843,153.140646,-9054.440718
2997.701582,-401.994197,478.564520,-9322.436850
2997.704159,1856.830338,823.130974,-8977.870395
2997.706737,-784.845813,133.998066,-8863.014910
2997.709314,-38.285162,-1646.261949,-8882.157491
2997.711892,650.847747,1244.267752,-9188.438784
2997.714469,306.281293,287.138712,-9437.292334
2997.717047,2163.111630,2947.957443,-9341.579430
2997.719624,76.570323,-1148.554848,-8882.157491
2997.722201,784.845813,593.420005,-9073.583299
2997.724779,-421.136778,1359.123237,-9169.296203
2997.727356,153.140646,1091.127106,-9131.011042
2997.729934,401.994197,1416.550979,-9073.583299
2997.732511,-382.851616,-1741.974853,-9169.296203
2997.735089,-1512.263883,-76.570323,-8863.014910
2997.737666,306.281293,-153.140646,-9016.155557
2997.740244,-1933.400661,-535.992262,-8958.727814
2997.742821,-2392.822600,-2182.254211,-8939.585234
2997.745399,-1435.693560,-325.423874,-8824.729749
2997.747976,-2699.103893,-1473.978722,-9169.296203
2997.750553,-650.847747,574.277424,-9111.868461
2997.753131,-937.986459,57.427742,-8977.870395
2997.755708,-708.275490,-689.132909,-8901.300072
2997.758286,-1607.976787,-1837.687757,-8958.727814
2997.760865,-1416.550979,-1684.547110,-9035.298138
2997.763443,-2048.256146,-516.849682,-8882.157491
2997.766022,784.845813,191.425808,-9150.153622
2997.768601,-516.849682,57.427742,-9035.298138
2997.771180,-3196.810994,-1780.260014,-9111.868461
2997.773759,-1397.408398,-19.142581,-8595.018779
2997.776337,-2584.248408,-1359.123237,-8843.872330
2997.778916,-1722.832272,823.130974,-9073.583299
2997.781495,-2526.820666,-57.427742,-9131.011042
2997.784074,-1741.974853,-1263.410333,-9016.155557
2997.786653,-765.703232,-823.130974,-9073.583299
2997.789231,-823.130974,-2067.398726,-8977.870395
2997.791810,-2048.256146,-57.427742,-8824.729749
2997.794389,-727.418070,2277.967115,-9188.438784
2997.796968,382.851616,1741.974853,-9207.581365
2997.799547,-76.570323,918.843878,-9169.296203
2997.802125,248.853550,-1301.695494,-9111.868461
2997.804704,1205.982590,631.705166,-9111.868461
2997.807283,19.142581,1416.550979,-9245.866526
2997.809862,497.707101,1531.406464,-8939.585234
2997.812441,-1646.261949,172.283227,-9111.868461
2997.815019,-153.140646,-57.427742,-9150.153622
2997.817598,-287.138712,-95.712904,-9092.725880
2997.820177,-861.416136,1512.263883,-9494.720077
2997.822756,-3120.240670,535.992262,-9284.151688
2997.825335,3503.092286,267.996131,-8767.302006
2997.827913,-631.705166,2258.824534,-8824.729749
2997.830492,-3349.951640,-1339.980656,-9533.005238
2997.833071,2431.107762,3522.234867,-9245.866526
2997.835650,401.994197,-2526.820666,-9322.436850
2997.838229,2947.957443,3215.953574,-8977.870395
2997.840807,-650.847747,325.423874,-8901.300072
2997.843386,-459.421939,574.277424,-9360.722011
2997.845965,-38.285162,2545.963246,-9131.011042
2997.848544,727.418070,-401.994197,-9188.438784
2997.851122,-344.566454,57.427742,-8958.727814
2997.853701,-2086.541307,-823.130974,-9150.153622
2997.856280,-306.281293,267.996131,-8939.585234
2997.858859,-2105.683888,-555.134843,-8997.012976
2997.861438,-2163.111630,-2507.678085,-8958.727814
2997.864017,-1397.408398,0.000000,-8882.157491
2997.866597,-2086.541307,-1856.830338,-8997.012976
2997.869177,-842.273555,1014.556782,-9150.153622
2997.871756,-1186.840010,-650.847747,-8920.442653
2997.874336,-593.420005,-363.709035,-8882.157491
2997.876916,-1990.828403,-995.414202,-9054.440718
2997.879495,-669.990328,-1607.976787,-8939.585234
2997.882075,-1359.123237,2526.820666,-9016.155557
2997.884655,-1225.125171,-1646.261949,-9284.151688
2997.887234,746.560651,1301.695494,-8920.442653
2997.889814,-4345.365842,-4287.938099,-9073.583299
2997.892394,-937.986459,2392.822600,-8671.589102
2997.894973,-4421.936165,-2813.959378,-8977.870395
2997.897553,-765.703232,1780.260014,-9035.298138
2997.900133,-1378.265818,516.849682,-8939.585234
2997.902712,-1837.687757,-2086.541307,-9169.296203
2997.905292,-1512.263883,-937.986459,-9054.440718
2997.907872,-1110.269686,-1914.258080,-9035.298138
2997.910451,-1033.699363,1741.974853,-8939.585234
2997.913031,-248.853550,2239.681954,-9284.151688
2997.915611,-708.275490,133.998066,-9188.438784
2997.918190,880.558717,-382.851616,-9150.153622
2997.920770,976.271621,-344.566454,-9092.725880
2997.923350,440.279358,593.420005,-9284.151688
2997.925929,593.420005,2239.681954,-9131.011042
2997.928509,-1186.840010,497.707101,-8977.870395
2997.931089,-344.566454,823.130974,-9035.298138
2997.933668,-1167.697429,-1110.269686,-9284.151688
2997.936248,153.140646,1971.685822,-9245.866526
2997.938828,-1607.976787,1933.400661,-9131.011042
2997.941407,38.285162,-114.855485,-9131.011042
2997.943987,1741.974853,-172.283227,-8575.876198
2997.946567,-1129.412267,248.853550,-9188.438784
2997.949146,497.707101,1282.552914,-9322.436850
2997.951726,1263.410333,1091.127106,-9513.862658
2997.954306,1301.695494,38.285162,-9245.866526
2997.956885,1627.119368,1244.267752,-8805.587168
2997.959465,-784.845813,650.847747,-9188.438784
2997.962045,229.710970,1320.838075,-9265.009107
2997.964624,478.564520,765.703232,-9111.868461
2997.967204,153.140646,-631.705166,-9131.011042
2997.969784,-2335.394858,-325.423874,-8977.870395
2997.972364,19.142581,-114.855485,-9073.583299
2997.974944,-1703.689691,-631.705166,-8843.872330
2997.977524,-2048.256146,-2450.250342,-8977.870395
2997.980103,-1627.119368,593.420005,-8863.014910
2997.982683,-3273.381317,-1971.685822,-9111.868461
2997.985263,95.712904,880.558717,-9035.298138
2997.987843,-1531.406464,-823.130974,-9054.440718
2997.990423,-535.992262,-325.423874,-8863.014910
2997.993002,-1990.828403,-2373.680019,-8863.014910
2997.995582,-2220.539373,-2565.105827,-9035.298138
2997.998162,2545.963246,823.130974,-8805.587168
2998.000742,-2124.826469,2105.683888,-9207.581365
2998.003322,-5015.356170,-5187.639397,-9647.860723
2998.005901,2029.113565,3388.236802,-8748.159426
2998.008481,-4326.223261,-4728.217458,-8901.300072
2998.011061,-1167.697429,2163.111630,-8863.014910
2998.013641,-4804.787781,-2316.252277,-9188.438784
2998.016221,-1703.689691,-1627.119368,-9054.440718
2998.018801,-57.427742,689.132909,-8958.727814
2998.021380,-2986.242605,-4077.369710,-9188.438784
2998.023960,-1397.408398,669.990328,-8939.585234
2998.026540,-880.558717,267.996131,-9073.583299
2998.029120,823.130974,3637.090352,-9245.866526
2998.031700,-1780.260014,-574.277424,-9265.009107
2998.034279,1244.267752,-153.140646,-9131.011042
2998.036859,114.855485,-153.140646,-9131.011042
2998.039439,957.129040,937.986459,-9303.294269
2998.042019,535.992262,2335.394858,-9035.298138
2998.044599,-1263.410333,459.421939,-9111.868461
2998.047178,-382.851616,727.418070,-9073.583299
2998.049758,-1225.125171,-478.564520,-9360.722011
2998.052338,1186.840010,0.000000,-9016.155557
2998.054918,2163.111630,976.271621,-9035.298138
2998.057498,-421.136778,-306.281293,-8709.874264
2998.060078,267.996131,-191.425808,-8767.302006
2998.062657,-842.273555,1320.838075,-9418.149754
2998.065237,401.994197,574.277424,-9513.862658
2998.067817,1799.402595,2450.250342,-9360.722011
2998.070397,497.707101,-1148.554848,-9207.581365
2998.072977,1550.549045,363.709035,-8997.012976
2998.075557,363.709035,574.277424,-9054.440718
2998.078137,-95.712904,1722.832272,-9341.579430
2998.080717,-248.853550,631.705166,-9092.725880
2998.083297,-880.558717,-1359.123237,-9111.868461
2998.085877,-516.849682,689.132909,-8939.585234
2998.088458,-1052.841944,-1282.552914,-9035.298138
2998.091038,-1990.828403,516.849682,-9054.440718
2998.093618,-3637.090352,-2699.103893,-8997.012976
2998.096198,-727.418070,287.138712,-8882.157491
2998.098778,-2718.246474,-1416.550979,-9016.155557
2998.101358,-593.420005,421.136778,-9188.438784
2998.103938,-1205.982590,-153.140646,-8997.012976
2998.106518,-957.129040,-823.130974,-8863.014910
2998.109098,-995.414202,-2411.965181,-8671.589102
2998.111678,-803.988394,-2182.254211,-9092.725880
2998.114258,287.138712,1952.543242,-8863.014910
2998.116838,-2986.242605,0.000000,-9360.722011
2998.119418,-1493.121302,-1684.547110,-9016.155557
2998.121998,-2048.256146,-363.709035,-8824.729749
2998.124579,-2392.822600,-1990.828403,-8614.161360
2998.127159,-2392.822600,1301.695494,-8958.727814
2998.129739,-3464.807125,-1225.125171,-9322.436850
2998.132319,-899.701298,191.425808,-9111.868461
2998.134899,-2660.818731,-2947.957443,-8958.727814
2998.137479,-172.283227,-1167.697429,-9016.155557
2998.140059,-2182.254211,325.423874,-8901.300072
2998.142639,746.560651,2182.254211,-9265.009107
2998.145219,-421.136778,727.418070,-9016.155557
2998.147799,708.275490,1225.125171,-9150.153622
2998.150379,-153.140646,-1588.834206,-9188.438784
2998.152959,1110.269686,1339.980656,-9226.723946
2998.155539,325.423874,1071.984525,-9188.438784
2998.158119,-114.855485,1646.261949,-8843.872330
2998.160699,-1225.125171,267.996131,-9188.438784
2998.163280,-401.994197,325.423874,-9303.294269
2998.165860,133.998066,-650.847747,-8901.300072
2998.168440,2048.256146,-1225.125171,-8920.442653
2998.171020,4517.649069,3426.521963,-9092.725880
2998.173600,-6029.912952,-555.134843,-9169.296203
2998.176180,1148.554848,574.277424,-9150.153622
2998.178760,516.849682,114.855485,-9207.581365
2998.181341,1761.117434,19.142581,-9609.575562
2998.183921,1320.838075,2182.254211,-8920.442653
2998.186501,-267.996131,-1607.976787,-9092.725880
2998.189081,1914.258080,3598.805190,-8958.727814
2998.191662,-1359.123237,-325.423874,-9111.868461
2998.194242,1148.554848,1071.984525,-9284.151688
2998.196822,-2124.826469,-1473.978722,-8997.012976
2998.199402,0.000000,593.420005,-8920.442653
2998.201983,-2143.969050,-1110.269686,-9016.155557
2998.204563,-1607.976787,95.712904,-8939.585234
2998.207143,-2239.681954,-2163.111630,-8882.157491
2998.209723,-1493.121302,-421.136778,-8920.442653
2998.212303,-1205.982590,19.142581,-8997.012976
2998.214884,-1990.828403,-516.849682,-9207.581365
2998.217464,-306.281293,19.142581,-9035.298138
2998.220044,-1225.125171,-1761.117434,-8863.014910
2998.222624,-1933.400661,57.427742,-9131.011042
2998.225205,-2833.101958,-1914.258080,-9016.155557
2998.227785,650.847747,478.564520,-9073.583299
2998.230365,-976.271621,497.707101,-9360.722011
2998.232945,-976.271621,-2545.963246,-8633.303941
2998.235525,-1761.117434,-363.709035,-8652.446522
2998.238106,-3541.377448,-1454.836141,-8882.157491
2998.240686,-1895.115499,899.701298,-8977.870395
2998.243266,-2756.531635,-918.843878,-9131.011042
2998.245846,-535.992262,689.132909,-8997.012976
2998.248427,-2699.103893,-2718.246474,-8977.870395
2998.251007,-516.849682,-1167.697429,-9035.298138
2998.253587,-1512.263883,803.988394,-9035.298138
2998.256167,1512.263883,2775.674216,-9245.866526
2998.258748,-1607.976787,267.996131,-9111.868461
2998.261328,1167.697429,631.705166,-9073.583299
2998.263908,478.564520,-1052.841944,-9092.725880
2998.266488,899.701298,784.845813,-9284.151688
2998.269068,1129.412267,2392.822600,-9035.298138
2998.271649,-1454.836141,995.414202,-8997.012976
2998.274229,-440.279358,-95.712904,-9188.438784
2998.276809,-708.275490,440.279358,-9341.579430
2998.279389,1014.556782,-497.707101,-8958.727814
2998.281968,248.853550,2469.392923,-9169.296203
2998.284548,-2143.969050,689.132909,-9265.009107
2998.287128,-2833.101958,133.998066,-9169.296203
2998.289708,1186.840010,1761.117434,-9188.438784
2998.292288,382.851616,-1512.263883,-9647.860723
2998.294868,2297.109696,2009.970984,-9341.579430
2998.297448,-344.566454,114.855485,-9265.009107
2998.300027,1301.695494,746.560651,-8824.729749
2998.302607,880.558717,1339.980656,-9035.298138
2998.305187,478.564520,631.705166,-9245.866526
2998.307767,478.564520,823.130974,-8977.870395
2998.310347,-3196.810994,-1244.267752,-9016.155557
2998.312927,-191.425808,1186.840010,-9111.868461
2998.315506,-1741.974853,-1493.121302,-8882.157491
2998.318086,-669.990328,-440.279358,-8882.157491
2998.320666,-3579.662610,-1282.552914,-9016.155557
2998.323246,-1952.543242,-1014.556782,-9054.440718
2998.325826,-631.705166,1205.982590,-9092.725880
2998.328406,-1531.406464,-1301.695494,-9054.440718
2998.330986,-95.712904,267.996131,-8863.014910
2998.333565,-2488.535504,-937.986459,-9150.153622
2998.336145,-2718.246474,669.990328,-9303.294269
2998.338725,-2029.113565,-2201.396792,-8977.870395
2998.341305,363.709035,2220.539373,-9265.009107
2998.343885,-3139.383251,-3464.807125,-9322.436850
2998.346465,-842.273555,1014.556782,-8748.159426
2998.349045,-3809.373579,-1722.832272,-8614.161360
2998.351624,-1971.685822,421.136778,-8882.157491
2998.354204,-2718.246474,-497.707101,-9092.725880
2998.356784,-1895.115499,-1014.556782,-9265.009107
2998.359364,-1301.695494,-1531.406464,-8843.872330
2998.361944,-1339.980656,-1627.119368,-8977.870395
2998.364524,-957.129040,516.849682,-9016.155557
2998.367103,95.712904,2679.961312,-9399.007173
2998.369683,-306.281293,-57.427742,-9092.725880
2998.372263,1435.693560,1588.834206,-9016.155557
2998.374843,-95.712904,-1416.550979,-9150.153622
2998.377423,1167.697429,1052.841944,-9265.009107
2998.380002,-363.709035,1339.980656,-9303.294269
2998.382581,421.136778,2545.963246,-9073.583299
2998.385161,-918.843878,267.996131,-9035.298138
2998.387741,-248.853550,-1148.554848,-9111.868461
2998.390320,-133.998066,995.414202,-9226.723946
2998.392900,1933.400661,612.562586,-9111.868461
2998.395479,-57.427742,937.986459,-8824.729749
2998.398059,-1110.269686,440.279358,-8958.727814
2998.400638,-1071.984525,1550.549045,-9322.436850
2998.403218,229.710970,401.994197,-9399.007173
2998.405797,1875.972918,1990.828403,-9456.434915
2998.408377,1033.699363,153.140646,-8997.012976
2998.410956,516.849682,650.847747,-9073.583299
2998.413536,306.281293,689.132909,-9169.296203
2998.416115,689.132909,1512.263883,-9150.153622
2998.418695,-76.570323,-57.427742,-9111.868461
2998.421274,-2354.537438,-957.129040,-8997.012976
2998.423854,-842.273555,-19.142581,-9092.725880
2998.426433,-1875.972918,-593.420005,-8958.727814
2998.429013,-842.273555,-1301.695494,-8863.014910
2998.431592,-2775.674216,-382.851616,-8958.727814
2998.434172,-2622.533570,-2201.396792,-9016.155557
2998.436751,-133.998066,555.134843,-9035.298138
2998.439331,-1052.841944,-689.132909,-8939.585234
2998.441910,-478.564520,248.853550,-8958.727814
2998.444490,-1569.691626,-2718.246474,-8690.731683
2998.447069,-631.705166,-2373.680019,-8977.870395
2998.449649,-421.136778,2411.965181,-8977.870395
2998.452228,-2660.818731,-3062.812928,-9379.864592
2998.454808,1856.830338,555.134843,-9073.583299
2998.457387,-2603.390989,-2277.967115,-8786.444587
2998.459967,-1990.828403,172.283227,-8786.444587
2998.462546,-2124.826469,842.273555,-8863.014910
2998.465126,-2947.957443,-1856.830338,-9169.296203
2998.467705,19.142581,861.416136,-9073.583299
2998.470285,-3196.810994,-3005.385186,-8901.300072
2998.472864,-957.129040,-669.990328,-8958.727814
2998.475444,-1607.976787,401.994197,-9131.011042
2998.478023,1895.115499,2756.531635,-9341.579430
2998.480603,-1320.838075,-114.855485,-9073.583299
2998.483160,803.988394,-459.421939,-9111.868461
2998.485717,497.707101,57.427742,-9150.153622
2998.488274,172.283227,267.996131,-9245.866526
2998.490831,1263.410333,2699.103893,-9092.725880
2998.493388,-1627.119368,267.996131,-8997.012976
2998.495945,267.996131,497.707101,-9092.725880
2998.498502,-1148.554848,-555.134843,-9284.151688
2998.501059,440.279358,-1301.695494,-9150.153622
2998.503616,2450.250342,2565.105827,-8863.014910
2998.506173,-172.283227,401.994197,-8805.587168
2998.508730,-1646.261949,1646.261949,-8939.585234
2998.511287,-823.130974,344.566454,-9379.864592
2998.513844,1435.693560,1225.125171,-9533.005238
2998.516401,650.847747,516.849682,-9494.720077
2998.518958,1895.115499,1569.691626,-9207.581365
2998.521515,0.000000,1703.689691,-8997.012976
2998.524072,-153.140646,689.132909,-9341.579430
2998.526630,421.136778,593.420005,-9131.011042
2998.529187,-1205.982590,-1971.685822,-9016.155557
2998.531744,-708.275490,1033.699363,-8997.012976
2998.534301,-1569.691626,-708.275490,-9054.440718
2998.536858,-1684.547110,95.712904,-8977.870395
2998.539415,-3292.523898,-2507.678085,-8958.727814
2998.541972,-842.273555,-765.703232,-8997.012976
2998.544529,-1856.830338,-593.420005,-9054.440718
2998.547086,-229.710970,153.140646,-9073.583299
2998.549643,-1014.556782,-114.855485,-8863.014910
2998.552200,-1569.691626,-1971.685822,-8920.442653
2998.554757,-287.138712,-1761.117434,-8882.157491
2998.557314,1129.412267,784.845813,-8901.300072
2998.559871,-19.142581,4843.072942,-9207.581365
2998.562428,-7063.612315,-5895.914886,-9475.577496
2998.564985,1665.404530,2986.242605,-8882.157491
2998.567542,-3962.514226,-3445.664544,-8786.444587
2998.570099,-1167.697429,344.566454,-8709.874264
2998.572656,-4785.645200,-937.986459,-9054.440718
2998.575213,-1052.841944,-401.994197,-9207.581365
2998.577770,-1148.554848,-842.273555,-8843.872330
2998.580327,-1320.838075,-3005.385186,-8863.014910
2998.582884,-937.986459,1895.115499,-9016.155557
2998.585444,114.855485,880.558717,-9360.722011
2998.588004,1052.841944,1454.836141,-9150.153622
2998.590564,172.283227,229.710970,-9073.583299
2998.593124,287.138712,-363.709035,-9131.011042
2998.595684,344.566454,210.568389,-9226.723946
2998.598243,765.703232,2622.533570,-9131.011042
2998.600803,-708.275490,746.560651,-8958.727814
2998.603363,57.427742,555.134843,-8997.012976
2998.605923,-899.701298,-1588.834206,-9111.868461
2998.608483,-535.992262,1359.123237,-9322.436850
2998.611042,1531.406464,899.701298,-8958.727814
2998.613602,-459.421939,708.275490,-8882.157491
2998.616162,-1971.685822,-344.566454,-9073.583299
2998.618722,1588.834206,1627.119368,-9169.296203
2998.621282,95.712904,-516.849682,-9494.720077
2998.623841,1914.258080,937.986459,-9322.436850
2998.626401,1205.982590,1091.127106,-9016.155557
2998.628961,669.990328,1359.123237,-9092.725880
2998.631521,-95.712904,1646.261949,-9054.440718
2998.634081,401.994197,-325.423874,-9188.438784
2998.636640,-1569.691626,-842.273555,-9150.153622
2998.639200,-574.277424,210.568389,-8997.012976
2998.641760,-1435.693560,-516.849682,-8977.870395
2998.644320,-2048.256146,-76.570323,-8939.585234
2998.646880,-2641.676150,-2603.390989,-8882.157491
2998.649440,-803.988394,57.427742,-8958.727814
2998.651999,-1856.830338,-1339.980656,-9150.153622
2998.654559,-1378.265818,440.279358,-9016.155557
2998.657119,-1320.838075,-401.994197,-9035.298138
2998.659679,-1588.834206,-612.562586,-9016.155557
2998.662239,-363.709035,-287.138712,-8748.159426
2998.664798,-4460.221326,-1091.127106,-9360.722011
2998.667358,-650.847747,-2622.533570,-9016.155557
2998.669918,2239.681954,2354.537438,-9131.011042
2998.672478,-2794.816797,-2258.824534,-8652.446522
2998.675038,-2373.680019,-689.132909,-8748.159426
2998.677597,-3158.525832,-765.703232,-8748.159426
2998.680157,-2335.394858,-1129.412267,-9169.296203
2998.682717,229.710970,1454.836141,-8997.012976
2998.685277,-4173.082614,-3369.094221,-9054.440718
2998.687839,-421.136778,153.140646,-8863.014910
2998.690402,-1359.123237,-440.279358,-9092.725880
2998.692964,2048.256146,1588.834206,-9322.436850
2998.695527,-478.564520,1033.699363,-9016.155557
2998.698089,976.271621,0.000000,-9092.725880
2998.700651,57.427742,-401.994197,-9111.868461
2998.703214,746.560651,899.701298,-9226.723946
2998.705776,650.847747,2067.398726,-9226.723946
2998.708339,-1014.556782,976.271621,-8977.870395
2998.710901,248.853550,172.283227,-8977.870395
2998.713463,-497.707101,516.849682,-9226.723946
2998.716026,-344.566454,-574.277424,-9379.864592
2998.718588,2775.674216,1435.693560,-8882.157491
2998.721151,-1761.117434,-957.129040,-8939.585234
2998.723713,1071.984525,1875.972918,-8901.300072
2998.726275,-516.849682,-612.562586,-9245.866526
2998.728838,2469.392923,325.423874,-9399.007173
2998.731400,1148.554848,2373.680019,-9265.009107
2998.733963,401.994197,287.138712,-9016.155557
2998.736525,1052.841944,1990.828403,-9016.155557
2998.739087,574.277424,-248.853550,-8977.870395
2998.741650,229.710970,-650.847747,-9131.011042
2998.744212,-2890.529701,-1301.695494,-8863.014910
2998.746775,-306.281293,1205.982590,-9188.438784
2998.749337,-2890.529701,-669.990328,-8939.585234
2998.751900,-1435.693560,-2143.969050,-8997.012976
2998.754462,-2105.683888,-497.707101,-8920.442653
2998.757024,-2565.105827,-2277.967115,-9111.868461
2998.759587,95.712904,1378.265818,-9016.155557
2998.762149,-1780.260014,-803.988394,-9035.298138
2998.764712,-191.425808,535.992262,-8863.014910
2998.767274,-2239.681954,-2469.392923,-8843.872330
2998.769836,-3081.955509,38.285162,-9169.296203
2998.772399,-1607.976787,-114.855485,-9360.722011
2998.774961,-1416.550979,1301.695494,-9379.864592
2998.777524,-765.703232,-1684.547110,-8805.587168
2998.780086,-2086.541307,-2105.683888,-8690.731683
2998.782648,-2584.248408,-1397.408398,-8709.874264
2998.785211,-2928.814862,535.992262,-9111.868461
2998.787773,-1818.545176,287.138712,-9073.583299
2998.790338,-2450.250342,-1512.263883,-8977.870395
2998.792903,-1435.693560,-1952.543242,-8977.870395
2998.795467,-995.414202,459.421939,-9016.155557
2998.798032,1014.556782,1837.687757,-9418.149754
2998.800597,267.996131,1225.125171,-9207.581365
2998.803161,459.421939,995.414202,-9073.583299
2998.805726,669.990328,-516.849682,-8958.727814
2998.808291,497.707101,-19.142581,-9188.438784
2998.810855,784.845813,2124.826469,-9169.296203
2998.813420,-765.703232,1205.982590,-9054.440718
2998.815985,-306.281293,995.414202,-9131.011042
2998.818550,-1646.261949,38.285162,-9322.436850
2998.821114,-401.994197,1167.697429,-9265.009107
2998.823679,76.570323,-669.990328,-9150.153622
2998.826244,-210.568389,2986.242605,-9054.440718
2998.828808,-2297.109696,-803.988394,-9131.011042
2998.831373,344.566454,861.416136,-9379.864592
2998.833938,516.849682,-191.425808,-9360.722011
2998.836502,1914.258080,267.996131,-9456.434915
2998.839067,1359.123237,2392.822600,-9092.725880
2998.841632,38.285162,325.423874,-9169.296203
2998.844196,1225.125171,2316.252277,-8977.870395
2998.846761,-842.273555,-1627.119368,-9092.725880
2998.849326,-1301.695494,-306.281293,-8939.585234
2998.851890,-1607.976787,172.283227,-9265.009107
2998.854455,-1895.115499,-133.998066,-8977.870395
2998.857020,-1493.121302,-803.988394,-8882.157491
2998.859585,-2775.674216,-1627.119368,-8920.442653
2998.862149,-1780.260014,-1014.556782,-9035.298138
2998.864714,-976.271621,-382.851616,-9169.296203
2998.867279,-631.705166,-382.851616,-9073.583299
2998.869843,-746.560651,-382.851616,-8824.729749
2998.872408,-3158.525832,-363.709035,-9207.581365
2998.874973,-2316.252277,-1837.687757,-8805.587168
2998.877537,1320.838075,-899.701298,-9016.155557
2998.880102,650.847747,210.568389,-9111.868461
2998.882667,-3349.951640,-1722.832272,-9131.011042
2998.885231,-1378.265818,631.705166,-8537.591037
2998.887796,-3637.090352,-1091.127106,-8958.727814
2998.890361,-1895.115499,-803.988394,-9016.155557
2998.892927,-555.134843,325.423874,-9035.298138
2998.895493,-3809.373579,-2603.390989,-9035.298138
2998.898060,-880.558717,-229.710970,-8882.157491
2998.900626,-1148.554848,-459.421939,-8977.870395
2998.903192,1799.402595,3043.670347,-9379.864592
2998.905758,-440.279358,1110.269686,-9188.438784
2998.908324,708.275490,114.855485,-9131.011042
2998.910891,535.992262,-19.142581,-9073.583299
2998.913457,497.707101,306.281293,-9265.009107
2998.916023,631.705166,2392.822600,-9150.153622
2998.918589,-1339.980656,669.990328,-9111.868461
2998.921156,267.996131,1531.406464,-9131.011042
2998.923722,-1339.980656,-1359.123237,-9303.294269
2998.926288,-1569.691626,-76.570323,-9303.294269
2998.928854,2277.967115,2909.672282,-9111.868461
2998.931420,-2890.529701,-229.710970,-9073.583299
2998.933987,1550.549045,937.986459,-8882.157491
2998.936553,-19.142581,-153.140646,-9131.011042
2998.939119,1148.554848,-344.566454,-9533.005238
2998.941685,1703.689691,2526.820666,-9265.009107
2998.944251,-153.140646,555.134843,-9150.153622
2998.946818,784.845813,2737.389054,-9092.725880
2998.949384,-57.427742,-746.560651,-9111.868461
2998.951950,-306.281293,-1167.697429,-9073.583299
2998.954516,-2297.109696,516.849682,-9054.440718
2998.957083,-1531.406464,-803.988394,-9092.725880
2998.959649,-1799.402595,727.418070,-8920.442653
2998.962215,-2622.533570,-3292.523898,-8863.014910
2998.964781,-344.566454,612.562586,-8977.870395
2998.967347,-3101.098090,-2009.970984,-9169.296203
2998.969914,172.283227,1129.412267,-9111.868461
2998.972480,-1722.832272,-267.996131,-8977.870395
2998.975048,-842.273555,-133.998066,-9073.583299
2998.977616,-3177.668413,-3426.521963,-8863.014910
2998.980183,497.707101,363.709035,-8977.870395
2998.982751,1205.982590,-1014.556782,-8920.442653
2998.985319,-612.562586,38.285162,-9035.298138
2998.987887,-2488.535504,-1550.549045,-8690.731683
2998.990455,-3024.527766,-650.847747,-8786.444587
2998.993022,-3005.385186,-1148.554848,-9035.298138
2998.995590,-1971.685822,287.138712,-9073.583299
2998.998158,-2258.824534,-1435.693560,-8901.300072
2999.000726,-1435.693560,-1320.838075,-8977.870395
2999.003294,-1684.547110,-191.425808,-9054.440718
2999.005861,1301.695494,1914.258080,-9418.149754
2999.008429,363.709035,995.414202,-9188.438784
2999.010997,1071.984525,1339.980656,-9131.011042
2999.013565,57.427742,-650.847747,-9092.725880
2999.016133,1091.127106,421.136778,-9188.438784
2999.018700,-708.275490,1110.269686,-9245.866526
2999.021268,-555.134843,1244.267752,-9111.868461
2999.023836,-172.283227,1148.554848,-9092.725880
2999.026404,-1378.265818,-421.136778,-9399.007173
2999.028972,784.845813,2105.683888,-9092.725880
2999.031540,-1359.123237,-1531.406464,-9226.723946
2999.034107,478.564520,4039.084549,-9054.440718
2999.036675,-2277.967115,-842.273555,-8863.014910
2999.039243,1263.410333,1588.834206,-9322.436850
2999.041811,459.421939,727.418070,-9360.722011
2999.044379,1071.984525,-267.996131,-9456.434915
2999.046946,2048.256146,3196.810994,-9054.440718
2999.049514,-440.279358,-325.423874,-9226.723946
2999.052082,1646.261949,2373.680019,-9016.155557
2999.054650,-1531.406464,-2469.392923,-9035.298138
2999.057218,-1071.984525,248.853550,-8882.157491
2999.059785,-1933.400661,-957.129040,-9035.298138
2999.062353,-1646.261949,306.281293,-8997.012976
2999.064921,-2277.967115,-2526.820666,-8863.014910
2999.067489,-1186.840010,229.710970,-8824.729749
2999.070057,-2699.103893,-2584.248408,-9073.583299
2999.072624,19.142581,1071.984525,-9073.583299
2999.075192,-1378.265818,-650.847747,-9054.440718
2999.077761,-918.843878,957.129040,-8748.159426
2999.080329,-516.849682,-1473.978722,-8843.872330
2999.082898,-2411.965181,440.279358,-9111.868461
2999.085467,-3311.666478,-612.562586,-9475.577496
2999.088035,650.847747,-287.138712,-9035.298138
2999.090604,-1837.687757,-1282.552914,-8901.300072
2999.093173,-2622.533570,-1148.554848,-8556.733618
2999.095741,-3273.381317,114.855485,-8882.157491
2999.098310,-3369.094221,-689.132909,-9265.009107
2999.100878,-2277.967115,-1493.121302,-8958.727814
2999.103447,-1416.550979,-1607.976787,-8805.587168
2999.106016,-1167.697429,459.421939,-9054.440718
2999.108584,76.570323,1454.836141,-9265.009107
2999.111153,1607.976787,784.845813,-9245.866526
2999.113721,784.845813,1129.412267,-9054.440718
2999.116290,306.281293,-344.566454,-9169.296203
2999.118859,497.707101,1110.269686,-9188.438784
2999.121427,-516.849682,1646.261949,-9341.579430
2999.123996,-19.142581,1627.119368,-9169.296203
2999.126564,-784.845813,631.705166,-9131.011042
2999.129133,-95.712904,-1512.263883,-9092.725880
2999.131702,401.994197,-325.423874,-9226.723946
2999.134270,2143.969050,937.986459,-8958.727814
2999.136839,-440.279358,421.136778,-8958.727814
2999.139407,267.996131,746.560651,-8920.442653
2999.141976,497.707101,-593.420005,-9150.153622
2999.144545,1569.691626,401.994197,-9379.864592
2999.147113,1435.693560,1148.554848,-9303.294269
2999.149682,1875.972918,1761.117434,-8939.585234
2999.152250,497.707101,1914.258080,-9092.725880
2999.154819,172.283227,19.142581,-9188.438784
2999.157388,-1722.832272,-1244.267752,-9016.155557
2999.159956,-1244.267752,325.423874,-8958.727814
2999.162525,-1990.828403,-287.138712,-8977.870395
2999.165093,-2048.256146,287.138712,-8977.870395
2999.167662,-2928.814862,-3024.527766,-8843.872330
2999.170231,-727.418070,325.423874,-8901.300072
2999.172799,-2947.957443,-1990.828403,-9169.296203
2999.175368,-114.855485,995.414202,-9111.868461
2999.177937,-1014.556782,880.558717,-8939.585234
2999.180506,-1071.984525,-1914.258080,-8824.729749
2999.183075,-1856.830338,2526.820666,-9131.011042
2999.185645,-8193.024582,-3598.805190,-9552.147819
2999.188214,4326.223261,746.560651,-9035.298138
2999.190783,306.281293,-1856.830338,-8767.302006
2999.193353,-3158.525832,-1320.838075,-8805.587168
2999.195922,-2316.252277,1301.695494,-8614.161360
2999.198492,-4977.071008,-2813.959378,-9265.009107
2999.201061,555.134843,593.420005,-8958.727814
2999.203630,-3177.668413,-2603.390989,-8882.157491
2999.206200,-918.843878,-95.712904,-8939.585234
2999.208769,-1837.687757,861.416136,-9035.298138
2999.211339,2488.535504,2105.683888,-9494.720077
2999.213908,-937.986459,114.855485,-9111.868461
2999.216477,899.701298,325.423874,-9169.296203
2999.219047,478.564520,287.138712,-9131.011042
2999.221616,-57.427742,861.416136,-9169.296203
2999.224185,612.562586,2067.398726,-9054.440718
2999.226755,-1129.412267,478.564520,-9111.868461
2999.229324,-153.140646,153.140646,-9111.868461
2999.231894,-1378.265818,-114.855485,-9284.151688
2999.234463,880.558717,-229.710970,-9131.011042
2999.237032,-248.853550,2584.248408,-8920.442653
2999.239602,-2297.109696,-1359.123237,-9111.868461
2999.242171,2584.248408,2852.244539,-8939.585234
2999.244741,-478.564520,-1359.123237,-9513.862658
2999.247310,2718.246474,1493.121302,-9284.151688
2999.249879,459.421939,765.703232,-9054.440718
2999.252449,1856.830338,1856.830338,-9207.581365
2999.255018,880.558717,1837.687757,-8977.870395
2999.257587,-210.568389,-1684.547110,-8977.870395
2999.260157,-2469.392923,-287.138712,-8997.012976
2999.262726,-1454.836141,-516.849682,-9111.868461
2999.265296,-2488.535504,19.142581,-8977.870395
2999.267865,-2143.969050,-1799.402595,-8939.585234
2999.270434,-1818.545176,76.570323,-8920.442653
2999.273004,-3579.662610,-2871.387120,-9169.296203
2999.275573,401.994197,1320.838075,-9035.298138
2999.278143,-1761.117434,-1091.127106,-9035.298138
2999.280712,38.285162,-1225.125171,-8748.159426
2999.283261,-1454.836141,-2641.676150,-8920.442653
2999.285811,-765.703232,1014.556782,-9016.155557
2999.288361,-3579.662610,-1646.261949,-9475.577496
2999.290910,899.701298,19.142581,-9188.438784
2999.293460,-1416.550979,153.140646,-8843.872330
2999.296009,-3177.668413,-2947.957443,-8671.589102
2999.298559,-1435.693560,516.849682,-8863.014910
2999.301108,-3369.094221,-1186.840010,-9150.153622
2999.303658,-1818.545176,-1033.699363,-9073.583299
2999.306208,-2488.535504,-1665.404530,-8901.300072
2999.308757,-401.994197,995.414202,-9073.583299
2999.311307,1895.115499,2220.539373,-9188.438784
2999.313856,-287.138712,-191.425808,-9303.294269
2999.316406,1607.976787,899.701298,-9054.440718
2999.318956,229.710970,-153.140646,-9169.296203
2999.321505,669.990328,1320.838075,-9226.723946
2999.324055,-516.849682,1684.547110,-9150.153622
2999.326604,-516.849682,1091.127106,-9169.296203
2999.329154,-708.275490,555.134843,-9188.438784
2999.331703,1033.699363,-2239.681954,-8939.585234
2999.334253,1914.258080,1761.117434,-9092.725880
2999.336803,-2163.111630,1837.687757,-9111.868461
2999.339352,-1875.972918,2105.683888,-8863.014910
2999.341902,267.996131,-172.283227,-9226.723946
2999.344451,1282.552914,421.136778,-9265.009107
2999.347001,1110.269686,95.712904,-9418.149754
2999.349550,2354.537438,2871.387120,-9150.153622
2999.352100,-708.275490,535.992262,-9092.725880
2999.354650,1569.691626,1799.402595,-9092.725880
2999.357199,-689.132909,-1780.260014,-8939.585234
2999.359749,-1875.972918,-344.566454,-8977.870395
2999.362298,-1588.834206,-382.851616,-9073.583299
2999.364848,-2622.533570,-76.570323,-8977.870395
2999.367397,-2143.969050,-1339.980656,-8863.014910
2999.369947,-1339.980656,-382.851616,-8882.157491
2999.372497,-2603.390989,-1933.400661,-9169.296203
2999.375046,-76.570323,727.418070,-9035.298138
2999.377596,-727.418070,-765.703232,-8863.014910
2999.380145,-918.843878,-497.707101,-8882.157491
2999.382695,-1684.547110,937.986459,-8939.585234
2999.385248,-5034.498750,-4785.645200,-8977.870395
2999.387801,2067.398726,114.855485,-9207.581365
2999.390354,-57.427742,880.558717,-8882.157491
2999.392907,-3541.377448,-2067.398726,-9073.583299
2999.395460,-2565.105827,1856.830338,-8671.589102
2999.398013,-3866.801322,-3426.521963,-9092.725880
2999.400566,-153.140646,689.132909,-9092.725880
2999.403119,-4019.941968,-3369.094221,-9073.583299
2999.405672,-516.849682,1205.982590,-9016.155557
2999.408225,-995.414202,1799.402595,-9016.155557
2999.410778,2622.533570,95.712904,-9322.436850
2999.413331,918.843878,1378.265818,-9111.868461
2999.415884,382.851616,-497.707101,-9265.009107
2999.418437,784.845813,516.849682,-9169.296203
2999.420990,133.998066,918.843878,-9226.723946
2999.423543,497.707101,2086.541307,-9073.583299
2999.426095,-1033.699363,401.994197,-8997.012976
2999.428648,-133.998066,-708.275490,-9169.296203
2999.431201,746.560651,1512.263883,-9188.438784
2999.433754,-803.988394,57.427742,-9111.868461
2999.436307,-1263.410333,2009.970984,-8958.727814
2999.438860,-401.994197,669.990328,-8958.727814
2999.441413,38.285162,650.847747,-9341.579430
2999.443966,899.701298,803.988394,-9379.864592
2999.446519,1473.978722,976.271621,-9322.436850
2999.449072,1148.554848,1397.408398,-9207.581365
2999.451625,1052.841944,1493.121302,-9111.868461
2999.454178,38.285162,287.138712,-9035.298138
2999.456731,-1339.980656,-1148.554848,-8901.300072
2999.459284,-1397.408398,421.136778,-8977.870395
2999.461837,-2009.970984,-1282.552914,-8997.012976
2999.464390,-1914.258080,555.134843,-8882.157491
2999.466943,-3790.230998,-3273.381317,-8920.442653
2999.469496,-440.279358,325.423874,-8958.727814
2999.472049,-1588.834206,-1282.552914,-9111.868461
2999.474602,-133.998066,669.990328,-9054.440718
2999.477155,-1780.260014,-38.285162,-9131.011042
2999.479707,-459.421939,-1148.554848,-8786.444587
2999.482260,-3158.525832,-382.851616,-8939.585234
2999.484813,-2354.537438,-3637.090352,-9073.583299
2999.487369,1033.699363,1665.404530,-9303.294269
2999.489926,-2871.387120,-1971.685822,-8824.729749
2999.492482,-1359.123237,114.855485,-8709.874264
2999.495038,-3981.656806,-1933.400661,-8805.587168
2999.497594,-1244.267752,-229.710970,-9131.011042
2999.500150,-2679.961312,-1531.406464,-8843.872330
2999.502706,-1703.689691,-1569.691626,-8977.870395
2999.505262,-823.130974,1473.978722,-9016.155557
2999.507818,918.843878,267.996131,-9494.720077
2999.510374,1703.689691,1627.119368,-9150.153622
2999.512931,880.558717,-114.855485,-9092.725880
2999.515487,1091.127106,382.851616,-9073.583299
2999.518043,57.427742,478.564520,-9131.011042
2999.520599,287.138712,1818.545176,-9245.866526
2999.523155,-784.845813,1071.984525,-9054.440718
2999.525711,-612.562586,-842.273555,-8939.585234
2999.528267,363.709035,-248.853550,-9188.438784
2999.530823,1301.695494,669.990328,-9092.725880
2999.533379,-1129.412267,1933.400661,-9073.583299
2999.535935,-1531.406464,823.130974,-8958.727814
2999.538492,-191.425808,1033.699363,-9284.151688
2999.541048,823.130974,631.705166,-9494.720077
2999.543604,1167.697429,593.420005,-9399.007173
2999.546160,2201.396792,1550.549045,-9169.296203
2999.548716,765.703232,1416.550979,-9131.011042
2999.551272,535.992262,995.414202,-9226.723946
2999.553828,-1263.410333,-1646.261949,-8997.012976
2999.556384,-1091.127106,401.994197,-8958.727814
2999.558940,-2392.822600,-1588.834206,-9035.298138
2999.561496,-1225.125171,765.703232,-8863.014910
2999.564053,-3560.520029,-2986.242605,-8882.157491
2999.566609,-421.136778,727.418070,-8882.157491
2999.569165,-2507.678085,-2182.254211,-9111.868461
2999.571721,-248.853550,535.992262,-9054.440718
2999.574277,-976.271621,-1110.269686,-8786.444587
2999.576833,-1722.832272,-191.425808,-9054.440718
2999.579389,-1186.840010,-2086.541307,-8843.872330
2999.581945,-2086.541307,-803.988394,-9399.007173
2999.584501,459.421939,-1588.834206,-8939.585234
2999.587057,-1014.556782,-497.707101,-8824.729749
2999.589616,-2737.389054,-1473.978722,-8709.874264
2999.592175,-2201.396792,-191.425808,-8709.874264
2999.594734,-2737.389054,-1301.695494,-8958.727814
2999.597293,-2411.965181,-1741.974853,-9054.440718
2999.599852,-2220.539373,-918.843878,-8805.587168
2999.602411,-861.416136,1014.556782,-9092.725880
2999.604970,1091.127106,2565.105827,-9360.722011
2999.607529,38.285162,-650.847747,-9207.581365
2999.610088,2220.539373,1091.127106,-9150.153622
2999.612647,689.132909,-287.138712,-9131.011042
2999.615206,746.560651,1569.691626,-9111.868461
2999.617765,-746.560651,1244.267752,-9150.153622
2999.620324,-1033.699363,689.132909,-9150.153622
2999.622883,-440.279358,382.851616,-9303.294269
2999.625442,842.273555,363.709035,-9111.868461
2999.628001,-1837.687757,727.418070,-9360.722011
2999.630560,-191.425808,95.712904,-9111.868461
2999.633119,1933.400661,3426.521963,-8882.157491
2999.635677,-1339.980656,-1148.554848,-9054.440718
2999.638236,1875.972918,861.416136,-9437.292334
2999.640795,210.568389,746.560651,-9284.151688
2999.643354,2239.681954,1167.697429,-9265.009107
2999.645913,1569.691626,3120.240670,-8920.442653
2999.648472,-172.283227,-669.990328,-9207.581365
2999.651031,-1110.269686,-497.707101,-8863.014910
2999.653590,-1339.980656,-1014.556782,-8939.585234
2999.656149,-1627.119368,19.142581,-9016.155557
2999.658708,-2239.681954,-133.998066,-8901.300072
2999.661267,-3349.951640,-2143.969050,-8863.014910
2999.663826,-1225.125171,-689.132909,-8920.442653
2999.666385,-1339.980656,-401.994197,-9131.011042
2999.668944,-555.134843,-727.418070,-9073.583299
2999.671503,-401.994197,-535.992262,-8843.872330
2999.674062,-1722.832272,-2201.396792,-8882.157491
2999.676621,784.845813,727.418070,-8863.014910
2999.679180,-1148.554848,-2775.674216,-9111.868461
2999.681738,133.998066,708.275490,-9092.725880
2999.684297,-2622.533570,-1244.267752,-8786.444587
2999.686856,-2431.107762,19.142581,-8767.302006
2999.689415,-3407.379382,-1091.127106,-8882.157491
2999.691976,-1741.974853,-1244.267752,-9092.725880
2999.694537,-3522.234867,-1397.408398,-8977.870395
2999.697099,-2335.394858,-1761.117434,-9035.298138
2999.699660,440.279358,3273.381317,-9073.583299
2999.702221,516.849682,-172.283227,-9322.436850
2999.704782,2009.970984,1799.402595,-9150.153622
2999.707343,842.273555,-1110.269686,-9226.723946
2999.709904,1148.554848,1339.980656,-9226.723946
2999.712465,-650.847747,325.423874,-9226.723946
2999.715026,-133.998066,1684.547110,-9016.155557
2999.717587,-842.273555,937.986459,-9054.440718
2999.720149,-95.712904,-1282.552914,-9054.440718
2999.722710,880.558717,1780.260014,-9188.438784
2999.725271,-1875.972918,-306.281293,-9303.294269
2999.727832,1914.258080,2163.111630,-8671.589102
2999.730393,-2584.248408,478.564520,-9150.153622
2999.732954,803.988394,995.414202,-9303.294269
2999.735515,2277.967115,2258.824534,-9322.436850
2999.738076,401.994197,-76.570323,-9418.149754
2999.740637,2565.105827,3024.527766,-9035.298138
2999.743198,19.142581,-306.281293,-9016.155557
2999.745760,957.129040,593.420005,-9226.723946
2999.748321,-3771.088418,-1722.832272,-8977.870395
2999.750882,401.994197,708.275490,-9150.153622
2999.753443,-2699.103893,765.703232,-8824.729749
2999.756004,-2679.961312,-2833.101958,-8920.442653
2999.758565,-1531.406464,765.703232,-8805.587168
2999.761126,-3254.238736,-3081.955509,-9169.296203
2999.763687,1282.552914,1052.841944,-9016.155557
2999.766248,-1435.693560,-1512.263883,-8977.870395
2999.768810,-1110.269686,1818.545176,-9265.009107
2999.771371,-3617.947771,-3158.525832,-8863.014910
2999.773932,-708.275490,-3330.809059,-8997.012976
2999.776493,1780.260014,1914.258080,-9169.296203
2999.779054,-3349.951640,-2029.113565,-9016.155557
2999.781615,-1569.691626,593.420005,-8690.731683
2999.784176,-3656.232933,-1569.691626,-8843.872330
2999.786737,-1205.982590,-325.423874,-8920.442653
2999.789298,-3254.238736,-2335.394858,-8997.012976
2999.791859,-2163.111630,-1761.117434,-9035.298138
2999.794423,-708.275490,2373.680019,-8997.012976
2999.796986,957.129040,363.709035,-9284.151688
2999.799549,1282.552914,995.414202,-9322.436850
2999.802112,1225.125171,210.568389,-9131.011042
2999.804675,1301.695494,191.425808,-9226.723946
2999.807238,114.855485,937.986459,-9169.296203
2999.809801,229.710970,1416.550979,-9035.298138
2999.812365,-421.136778,1378.265818,-8997.012976
2999.814928,-957.129040,-708.275490,-9131.011042
2999.817491,-363.709035,-650.847747,-9341.579430
2999.820054,2603.390989,401.994197,-8939.585234
2999.822617,957.129040,459.421939,-8920.442653
2999.825180,-842.273555,2048.256146,-8939.585234
2999.827744,-306.281293,267.996131,-9245.866526
2999.830307,2009.970984,995.414202,-9513.862658
2999.832870,1091.127106,1186.840010,-9418.149754
2999.835433,2105.683888,1454.836141,-8977.870395
2999.837996,689.132909,2335.394858,-9035.298138
2999.840559,-267.996131,-1607.976787,-9169.296203
2999.843122,-1569.691626,-191.425808,-8977.870395
2999.845686,-1895.115499,-1167.697429,-9169.296203
2999.848249,-2354.537438,248.853550,-8977.870395
2999.850812,-3311.666478,-1971.685822,-8863.014910
2999.853375,-1856.830338,76.570323,-8824.729749
2999.855938,-2679.961312,-2603.390989,-8997.012976
2999.858501,459.421939,555.134843,-9092.725880
2999.861064,-1225.125171,19.142581,-9111.868461
2999.863628,-133.998066,-1110.269686,-8786.444587
2999.866191,95.712904,-593.420005,-8748.159426
2999.868754,-5513.063270,-2488.535504,-9035.298138
2999.871317,-1684.547110,-4000.799387,-9341.579430
2999.873880,574.277424,2565.105827,-9054.440718
2999.876443,-3981.656806,-3196.810994,-9016.155557
2999.879007,-861.416136,1282.552914,-8518.448456
2999.881570,-3828.516160,-2239.681954,-9035.298138
2999.884133,-2163.111630,-1167.697429,-9035.298138
2999.886696,-2775.674216,-2067.398726,-8901.300072
2999.889259,-937.986459,803.988394,-9188.438784
2999.891822,976.271621,3407.379382,-9322.436850
2999.894385,-267.996131,-593.420005,-9341.579430
2999.896950,2909.672282,1225.125171,-9016.155557
2999.899514,803.988394,-803.988394,-9188.438784
2999.902079,478.564520,1933.400661,-9207.581365
2999.904643,-1378.265818,861.416136,-9207.581365
2999.907208,229.710970,1914.258080,-9073.583299
2999.909772,-210.568389,-1320.838075,-9016.155557
2999.912336,1473.978722,459.421939,-9303.294269
2999.914901,-803.988394,401.994197,-9131.011042
2999.917465,-1282.552914,2335.394858,-9092.725880
2999.920030,-1320.838075,1741.974853,-9111.868461
2999.922594,593.420005,803.988394,-9399.007173
2999.925158,1990.828403,421.136778,-9418.149754
2999.927723,2220.539373,823.130974,-9245.866526
2999.930287,669.990328,1014.556782,-9188.438784
2999.932852,995.414202,1837.687757,-9035.298138
2999.935416,-95.712904,-880.558717,-9054.440718
2999.937980,-1761.117434,344.566454,-8997.012976
2999.940545,-2297.109696,-1550.549045,-9111.868461
2999.943109,-2833.101958,-267.996131,-9073.583299
2999.945674,-2641.676150,-1607.976787,-8958.727814
2999.948238,-1761.117434,95.712904,-8767.302006
2999.950803,-2507.678085,-1416.550979,-9035.298138
2999.953367,287.138712,-210.568389,-9092.725880
2999.955931,-440.279358,-57.427742,-9188.438784
2999.958496,-248.853550,-1014.556782,-8805.587168
2999.961060,-3101.098090,114.855485,-9111.868461
2999.963625,-2660.818731,-1761.117434,-9150.153622
2999.966189,937.986459,1091.127106,-9207.581365
2999.968753,-2373.680019,-2067.398726,-8939.585234
2999.971318,-1569.691626,516.849682,-8748.159426
2999.973882,-4345.365842,-1091.127106,-8824.729749
2999.976447,-1818.545176,-1378.265818,-9035.298138
2999.979011,-3101.098090,-1339.980656,-8901.300072
2999.981576,-1837.687757,-937.986459,-9092.725880
2999.984140,-1205.982590,1684.547110,-8997.012976
2999.986704,1665.404530,-325.423874,-9360.722011
2999.989269,1799.402595,2201.396792,-9188.438784
2999.991833,535.992262,-976.271621,-9245.866526
2999.994398,1225.125171,1512.263883,-9131.011042
2999.996962,-382.851616,-344.566454,-9245.866526
2999.999528,516.849682,2967.100024,-8958.727814
3000.002093,-2009.970984,153.140646,-9150.153622
3000.004659,38.285162,-38.285162,-9188.438784
3000.007225,1684.547110,-459.421939,-9150.153622
3000.009790,-497.707101,937.986459,-9092.725880
3000.012356,-1512.263883,861.416136,-9035.298138
3000.014922,746.560651,2086.541307,-9016.155557
3000.017488,421.136778,-76.570323,-9437.292334
3000.020053,2029.113565,1033.699363,-9379.864592
3000.022619,1244.267752,401.994197,-9322.436850
3000.025185,1014.556782,1071.984525,-9073.583299
3000.027750,976.271621,1435.693560,-8939.585234
3000.030316,-2469.392923,-2182.254211,-9035.298138
3000.032882,-57.427742,1339.980656,-9016.155557
3000.035447,-3426.521963,-2813.959378,-8997.012976
3000.038013,-1397.408398,880.558717,-8901.300072
3000.040579,-4670.789715,-3081.955509,-8939.585234
3000.043144,-1301.695494,-1531.406464,-8901.300072
3000.045710,-478.564520,516.849682,-8958.727814
3000.048276,-1416.550979,-957.129040,-9284.151688
3000.050841,363.709035,-478.564520,-8958.727814
3000.053407,-1148.554848,-2756.531635,-8997.012976
3000.055973,248.853550,784.845813,-8652.446522
3000.058538,-2603.390989,-1225.125171,-8977.870395
3000.061104,-2201.396792,-631.705166,-9437.292334
3000.063670,-2450.250342,-57.427742,-8805.587168
3000.066235,-2928.814862,-995.414202,-8805.587168
3000.068801,-1818.545176,-784.845813,-8824.729749
3000.071367,-3120.240670,-2009.970984,-8997.012976
3000.073933,-2756.531635,-1914.258080,-9035.298138
3000.076498,-1454.836141,1761.117434,-9035.298138
3000.079064,727.418070,1129.412267,-9437.292334
3000.081630,287.138712,459.421939,-9245.866526
3000.084195,2641.676150,861.416136,-9073.583299
3000.086761,823.130974,-133.998066,-9188.438784
3000.089327,229.710970,1339.980656,-9131.011042
3000.091892,-861.416136,784.845813,-9016.155557
3000.094458,-344.566454,1703.689691,-9111.868461
3000.097024,-1071.984525,440.279358,-9207.581365
3000.099589,-1607.976787,-765.703232,-9303.294269
3000.102156,1263.410333,1129.412267,-9360.722011
3000.104723,-1780.260014,1205.982590,-8882.157491
3000.107290,-248.853550,976.271621,-9092.725880
3000.109857,1454.836141,1952.543242,-9111.868461
3000.112424,478.564520,-1359.123237,-9513.862658
3000.114991,2737.389054,2220.539373,-9245.866526
3000.117558,593.420005,229.710970,-8977.870395
3000.120125,1493.121302,2813.959378,-9073.583299
3000.122692,-2277.967115,-937.986459,-8939.585234
3000.125259,-382.851616,95.712904,-9111.868461
3000.127826,-3158.525832,-2009.970984,-9016.155557
3000.130393,-1971.685822,133.998066,-9073.583299
3000.132960,-4134.797453,-2220.539373,-8920.442653
3000.135527,-995.414202,363.709035,-8805.587168
3000.138094,-2239.681954,-1186.840010,-9016.155557
3000.140661,-57.427742,-1244.267752,-9073.583299
3000.143228,937.986459,-191.425808,-8958.727814
3000.145795,-1818.545176,1052.841944,-9150.153622
3000.148361,-5666.203917,-2622.533570,-9016.155557
3000.150928,2239.681954,-191.425808,-8863.014910
3000.153495,-133.998066,-1167.697429,-8882.157491
3000.156062,-3005.385186,-803.988394,-8997.012976
3000.158629,-3139.383251,459.421939,-8843.872330
3000.161196,-3866.801322,-2201.396792,-8997.012976
3000.163763,-2009.970984,-19.142581,-8939.585234
3000.166330,-3139.383251,-2833.101958,-8997.012976
3000.168897,-727.418070,1588.834206,-9016.155557
3000.171464,0.000000,2373.680019,-9360.722011
3000.174031,1569.691626,57.427742,-9207.581365
3000.176598,2775.674216,1359.123237,-8997.012976
3000.179165,1110.269686,-765.703232,-9188.438784
3000.181732,689.132909,1646.261949,-9207.581365
3000.184299,-1761.117434,937.986459,-9111.868461
3000.186866,-114.855485,1799.402595,-9111.868461
3000.189433,-765.703232,-210.568389,-8939.585234
3000.192000,1110.269686,-344.566454,-9265.009107
3000.194567,-363.709035,593.420005,-8977.870395
3000.197134,-229.710970,612.562586,-9054.440718
3000.199700,76.570323,2431.107762,-8997.012976
3000.202267,306.281293,669.990328,-9322.436850
3000.204835,1761.117434,784.845813,-9513.862658
3000.207403,1684.547110,344.566454,-9322.436850
3000.209970,1741.974853,1320.838075,-9016.155557
3000.212538,650.847747,1339.980656,-9111.868461
3000.215105,-1493.121302,-440.279358,-8901.300072
3000.217673,-727.418070,-114.855485,-9073.583299
3000.220240,-2890.529701,-1761.117434,-9054.440718
3000.222808,-1627.119368,-1071.984525,-8939.585234
3000.225375,-3713.660675,-1301.695494,-8863.014910
3000.227943,-1569.691626,-440.279358,-8882.157491
3000.230510,-1569.691626,76.570323,-8920.442653
3000.233078,-401.994197,-1435.693560,-9092.725880
3000.235646,-153.140646,1244.267752,-9303.294269
3000.238213,-3751.945837,-880.558717,-9111.868461
3000.240781,-937.986459,-210.568389,-9016.155557
3000.243348,-689.132909,172.283227,-8709.874264
3000.245916,-2545.963246,-3349.951640,-9265.009107
3000.248483,-1205.982590,2431.107762,-8690.731683
3000.251051,-4709.074877,-3024.527766,-9073.583299
3000.253618,-1225.125171,306.281293,-8805.587168
3000.256186,-4441.078746,-1818.545176,-8882.157491
3000.258754,-1225.125171,-440.279358,-9054.440718
3000.261321,-1646.261949,1607.976787,-8958.727814
3000.263889,3426.521963,861.416136,-9494.720077
3000.266456,-861.416136,1359.123237,-9188.438784
3000.269024,2354.537438,574.277424,-9188.438784
3000.271591,1205.982590,191.425808,-9016.155557
3000.274159,803.988394,937.986459,-9226.723946
3000.276726,957.129040,2584.248408,-8997.012976
3000.279294,-2277.967115,-593.420005,-9092.725880
3000.281861,19.142581,669.990328,-9303.294269
3000.284429,1014.556782,-133.998066,-9111.868461
3000.286997,459.421939,1512.263883,-9131.011042
3000.289566,-2220.539373,478.564520,-8920.442653
3000.292134,555.134843,1646.261949,-9284.151688
3000.294702,765.703232,229.710970,-9360.722011
3000.297271,2431.107762,976.271621,-9533.005238
3000.299839,1205.982590,1282.552914,-9245.866526
3000.302407,593.420005,287.138712,-9035.298138
3000.304976,1378.265818,650.847747,-9035.298138
3000.307544,-3579.662610,-1225.125171,-8920.442653
3000.310112,-612.562586,823.130974,-9092.725880
3000.312681,-3809.373579,-2679.961312,-8939.585234
3000.315249,-2660.818731,-2622.533570,-8997.012976
3000.317817,-1952.543242,937.986459,-8805.587168
3000.320386,-2928.814862,-2469.392923,-8958.727814
3000.322954,612.562586,1588.834206,-9016.155557
3000.325522,-1971.685822,-669.990328,-9284.151688
3000.328090,689.132909,344.566454,-8901.300072
3000.330659,-4039.084549,-1627.119368,-9188.438784
3000.333227,-2890.529701,-516.849682,-9073.583299
3000.335795,-459.421939,459.421939,-9169.296203
3000.338364,-2565.105827,-574.277424,-9073.583299
3000.340932,-2622.533570,-1205.982590,-8786.444587
3000.343500,-2220.539373,-497.707101,-8748.159426
3000.346069,-3560.520029,-2603.390989,-9035.298138
3000.348637,-2009.970984,-1186.840010,-8997.012976
3000.351205,-2239.681954,440.279358,-8997.012976
3000.353774,229.710970,1837.687757,-9360.722011
3000.356342,803.988394,1359.123237,-9226.723946
3000.358910,2679.961312,306.281293,-9207.581365
3000.361479,2182.254211,57.427742,-9131.011042
3000.364047,248.853550,880.558717,-9265.009107
3000.366615,-555.134843,976.271621,-9054.440718
3000.369184,-497.707101,2105.683888,-9111.868461
3000.371752,-1091.127106,612.562586,-9456.434915
3000.374320,-1761.117434,401.994197,-9169.296203
3000.376889,842.273555,689.132909,-9322.436850
3000.379457,-1071.984525,1473.978722,-8824.729749
3000.382025,-1014.556782,631.705166,-9188.438784
3000.384594,1684.547110,2335.394858,-9188.438784
3000.387162,708.275490,-708.275490,-9513.862658
3000.389729,2411.965181,1397.408398,-9226.723946
3000.392298,593.420005,803.988394,-9073.583299
3000.394866,1071.984525,899.701298,-9035.298138
3000.397434,-3081.955509,-631.705166,-8997.012976
3000.400003,-287.138712,-133.998066,-8958.727814
3000.402571,-3503.092286,-1703.689691,-8977.870395
3000.405140,-1703.689691,-1014.556782,-9054.440718
3000.407708,-4000.799387,-1244.267752,-8863.014910
3000.410277,-1646.261949,-784.845813,-8882.157491
3000.412845,287.138712,861.416136,-8977.870395
3000.415414,-1837.687757,-2354.537438,-9035.298138
3000.417982,421.136778,-612.562586,-9016.155557
3000.420550,1033.699363,-2163.111630,-8958.727814
3000.423119,-1416.550979,3177.668413,-8920.442653
3000.425687,-5704.489078,-4153.940034,-9284.151688
3000.428256,-76.570323,1818.545176,-9131.011042
3000.430824,-3713.660675,-2297.109696,-8748.159426
3000.433393,-631.705166,153.140646,-8671.589102
3000.435961,-3407.379382,-1875.972918,-8882.157491
3000.438530,-3732.803256,-2718.246474,-9188.438784
3000.441098,-1531.406464,1244.267752,-8977.870395
3000.443666,-210.568389,899.701298,-9150.153622
3000.446235,2794.816797,1741.974853,-9169.296203
3000.448803,1110.269686,555.134843,-9169.296203
3000.451372,1990.828403,-191.425808,-9207.581365
3000.453940,76.570323,976.271621,-9207.581365
3000.456509,-440.279358,631.705166,-9169.296203
3000.459077,-267.996131,2354.537438,-8977.870395
3000.461646,-689.132909,-1052.841944,-8958.727814
3000.464214,1339.980656,765.703232,-9245.866526
3000.466783,-1646.261949,-19.142581,-9054.440718
3000.469351,1244.267752,1129.412267,-8824.729749
3000.471919,19.142581,2699.103893,-8939.585234
3000.474488,191.425808,38.285162,-9341.579430
3000.477056,2297.109696,2048.256146,-9379.864592
3000.479625,1684.547110,-382.851616,-9399.007173
3000.482193,1780.260014,1416.550979,-9188.438784
3000.484762,459.421939,957.129040,-9131.011042
3000.487330,-2182.254211,-765.703232,-8997.012976
3000.489899,-1186.840010,210.568389,-8958.727814
3000.492467,-3407.379382,-2124.826469,-9035.298138
3000.495036,-1914.258080,-1167.697429,-9111.868461
