#time,accel_x,accel_y,accel_z
1429.422881,-612.562586,76.570323,-9150.153622
1429.425326,-765.703232,0.000000,-9111.868461
1429.427771,-823.130974,114.855485,-9092.725880
1429.430217,-1014.556782,-2373.680019,-8901.300072
1429.432662,2086.541307,-918.843878,-8805.587168
1429.435107,-1741.974853,382.851616,-9035.298138
1429.437552,-1895.115499,-1473.978722,-8786.444587
1429.439997,-1129.412267,516.849682,-8824.729749
1429.442442,-2373.680019,-1129.412267,-9016.155557
1429.444887,-650.847747,535.992262,-8901.300072
1429.447333,-1550.549045,-1014.556782,-8939.585234
1429.449778,-363.709035,497.707101,-9150.153622
1429.452223,-612.562586,-1014.556782,-8977.870395
1429.454715,401.994197,440.279358,-9092.725880
1429.457207,-1263.410333,57.427742,-9054.440718
1429.459699,-727.418070,-478.564520,-8901.300072
1429.462191,-2565.105827,-421.136778,-8977.870395
1429.464683,-1473.978722,-229.710970,-9226.723946
1429.467175,363.709035,1837.687757,-9131.011042
1429.469667,210.568389,478.564520,-9169.296203
1429.472159,1110.269686,650.847747,-9150.153622
1429.474651,229.710970,-1435.693560,-9111.868461
1429.477143,114.855485,363.709035,-9073.583299
1429.479635,-1148.554848,937.986459,-8939.585234
1429.482127,-1359.123237,1110.269686,-9073.583299
1429.484619,-440.279358,-267.996131,-9073.583299
1429.487111,-574.277424,1110.269686,-9437.292334
1429.489603,631.705166,440.279358,-9092.725880
1429.492095,-421.136778,1033.699363,-9150.153622
1429.494587,-1359.123237,76.570323,-9016.155557
1429.497079,57.427742,1186.840010,-8843.872330
1429.499571,-1014.556782,-459.421939,-9188.438784
1429.502063,-1952.543242,516.849682,-9590.432981
1429.504555,1033.699363,918.843878,-8671.589102
1429.507047,-191.425808,-995.414202,-8958.727814
1429.509539,1148.554848,1454.836141,-9092.725880
1429.512031,-248.853550,0.000000,-9418.149754
1429.514523,957.129040,57.427742,-9226.723946
1429.517015,-459.421939,803.988394,-8997.012976
1429.519507,-918.843878,76.570323,-9073.583299
1429.521999,-1091.127106,1435.693560,-9073.583299
1429.524491,-325.423874,-114.855485,-9016.155557
1429.526983,459.421939,593.420005,-9169.296203
1429.529475,-440.279358,-172.283227,-9169.296203
1429.531967,631.705166,-555.134843,-9131.011042
1429.534459,-153.140646,363.709035,-9073.583299
1429.536950,-746.560651,1531.406464,-9073.583299
1429.539442,-76.570323,1627.119368,-8977.870395
1429.541934,-114.855485,-612.562586,-9284.151688
1429.544426,-363.709035,-708.275490,-9207.581365
1429.546918,784.845813,976.271621,-9150.153622
1429.549410,-1933.400661,-823.130974,-8863.014910
1429.551902,-1818.545176,-1722.832272,-8690.731683
1429.554317,-2411.965181,-1761.117434,-8709.874264
1429.556731,-1990.828403,76.570323,-9131.011042
1429.559146,-421.136778,1110.269686,-9188.438784
1429.561560,-612.562586,727.418070,-8977.870395
1429.563975,-325.423874,-1244.267752,-8977.870395
1429.566390,-497.707101,-2067.398726,-8977.870395
1429.568804,-631.705166,-114.855485,-9054.440718
1429.571219,-1780.260014,957.129040,-8939.585234
1429.573633,-1722.832272,1359.123237,-8939.585234
1429.576048,-2086.541307,-1512.263883,-8997.012976
1429.578462,-1569.691626,-1550.549045,-9016.155557
1429.580877,-1282.552914,-1799.402595,-8997.012976
1429.583291,-995.414202,1148.554848,-9265.009107
1429.585706,-1014.556782,899.701298,-8882.157491
1429.588120,-2258.824534,1473.978722,-9245.866526
1429.590535,-880.558717,-3541.377448,-9035.298138
1429.592949,172.283227,172.283227,-8729.016845
1429.595364,-363.709035,-3828.516160,-9131.011042
1429.597778,1531.406464,1703.689691,-8748.159426
1429.600193,-2220.539373,-2143.969050,-8939.585234
1429.602607,-1339.980656,1646.261949,-8824.729749
1429.605022,-2411.965181,-2163.111630,-8997.012976
1429.607436,-957.129040,76.570323,-9016.155557
1429.609851,-2641.676150,-612.562586,-9035.298138
1429.612265,-995.414202,478.564520,-9054.440718
1429.614680,-382.851616,-325.423874,-9035.298138
1429.617094,-555.134843,-1033.699363,-9092.725880
1429.619509,-746.560651,-1263.410333,-9016.155557
1429.621923,-1033.699363,-248.853550,-8958.727814
1429.624338,-1837.687757,210.568389,-9035.298138
1429.626752,-1512.263883,1320.838075,-8901.300072
1429.629167,-976.271621,-172.283227,-9131.011042
1429.631581,-2431.107762,-3809.373579,-9111.868461
1429.633996,-1378.265818,-1512.263883,-8977.870395
1429.636410,-1320.838075,631.705166,-8901.300072
1429.638825,153.140646,3962.514226,-9016.155557
1429.641239,-1301.695494,1818.545176,-9207.581365
1429.643654,2182.254211,1091.127106,-9265.009107
1429.646069,918.843878,-1933.400661,-9399.007173
1429.648483,1359.123237,-114.855485,-9245.866526
1429.650950,-1627.119368,535.992262,-8690.731683
1429.653418,-2201.396792,478.564520,-8863.014910
1429.655885,-823.130974,1933.400661,-9169.296203
1429.658352,-746.560651,-114.855485,-9379.864592
1429.660820,1320.838075,38.285162,-9169.296203
1429.663287,535.992262,-325.423874,-9245.866526
1429.665754,1033.699363,38.285162,-9035.298138
1429.668221,-325.423874,574.277424,-8863.014910
1429.670689,-440.279358,784.845813,-9073.583299
1429.673156,-727.418070,0.000000,-9131.011042
1429.675623,-918.843878,1703.689691,-9571.290400
1429.678091,-995.414202,1282.552914,-9073.583299
1429.680558,-2909.672282,-210.568389,-9111.868461
1429.683025,1397.408398,38.285162,-9016.155557
1429.685492,1071.984525,325.423874,-8824.729749
1429.687960,-2124.826469,-2545.963246,-9111.868461
1429.690427,2545.963246,2565.105827,-9092.725880
1429.692894,-995.414202,-1301.695494,-9092.725880
1429.695362,478.564520,287.138712,-9092.725880
1429.697829,421.136778,1531.406464,-9016.155557
1429.700296,708.275490,-153.140646,-9131.011042
1429.702764,287.138712,1186.840010,-9092.725880
1429.705231,-1569.691626,-535.992262,-9054.440718
1429.707698,-631.705166,1320.838075,-9169.296203
1429.710165,-516.849682,880.558717,-9131.011042
1429.712633,-191.425808,95.712904,-8939.585234
1429.715100,-497.707101,-172.283227,-9016.155557
1429.717567,95.712904,-823.130974,-9207.581365
1429.720035,-363.709035,0.000000,-9054.440718
1429.722502,0.000000,2277.967115,-9073.583299
1429.724969,95.712904,1320.838075,-9150.153622
1429.727437,-172.283227,-1473.978722,-9245.866526
1429.729904,-803.988394,516.849682,-9054.440718
1429.732371,574.277424,-38.285162,-9150.153622
1429.734838,-2029.113565,-765.703232,-8882.157491
1429.737306,-2450.250342,-2545.963246,-8843.872330
1429.739773,-2699.103893,-306.281293,-8843.872330
1429.742240,-1665.404530,-478.564520,-9245.866526
1429.744708,823.130974,3024.527766,-9131.011042
1429.747175,-1684.547110,-1512.263883,-8997.012976
1429.749680,440.279358,-976.271621,-8958.727814
1429.752185,-1416.550979,-2373.680019,-9035.298138
1429.754690,-1148.554848,133.998066,-9073.583299
1429.757195,-2124.826469,1091.127106,-8958.727814
1429.759699,-1014.556782,1473.978722,-8958.727814
1429.762204,-1818.545176,-1071.984525,-9073.583299
1429.764709,-1550.549045,-1646.261949,-9054.440718
1429.767214,-727.418070,-2048.256146,-8709.874264
1429.769719,-1550.549045,784.845813,-9073.583299
1429.772224,-229.710970,95.712904,-8958.727814
1429.774729,76.570323,153.140646,-8958.727814
1429.777234,-1569.691626,-1205.982590,-9092.725880
1429.779739,-459.421939,133.998066,-9073.583299
1429.782244,823.130974,440.279358,-8920.442653
1429.784749,-2603.390989,-1550.549045,-9169.296203
1429.787253,-593.420005,995.414202,-8767.302006
1429.789758,-2986.242605,-1416.550979,-9054.440718
1429.792263,-1646.261949,440.279358,-9035.298138
1429.794768,-1933.400661,-95.712904,-9035.298138
1429.797273,-1244.267752,57.427742,-9207.581365
1429.799778,-1052.841944,57.427742,-8901.300072
1429.802283,-1129.412267,-1320.838075,-8863.014910
1429.804788,-1454.836141,-421.136778,-9073.583299
1429.807293,-1454.836141,19.142581,-8997.012976
1429.809798,-918.843878,995.414202,-9150.153622
1429.812303,-1397.408398,363.709035,-9054.440718
1429.814807,-421.136778,-1780.260014,-8901.300072
1429.817312,-2029.113565,-1761.117434,-8882.157491
1429.819817,-2182.254211,-1282.552914,-8997.012976
1429.822322,-1052.841944,2967.100024,-9092.725880
1429.824827,-784.845813,1244.267752,-9150.153622
1429.827332,2048.256146,3158.525832,-9169.296203
1429.829837,1129.412267,-1378.265818,-9284.151688
1429.832342,2067.398726,133.998066,-9169.296203
1429.834847,-669.990328,-1359.123237,-9073.583299
1429.837352,-1531.406464,1071.984525,-8748.159426
1429.839857,-2890.529701,1129.412267,-9035.298138
1429.842361,-1320.838075,1512.263883,-9303.294269
1429.844866,-210.568389,344.566454,-9284.151688
1429.847371,1301.695494,-344.566454,-9226.723946
1429.849903,1665.404530,-248.853550,-9207.581365
1429.852435,248.853550,0.000000,-8997.012976
1429.854966,172.283227,995.414202,-8863.014910
1429.857498,-1052.841944,727.418070,-9035.298138
1429.860030,-880.558717,861.416136,-9494.720077
1429.862561,-267.996131,1856.830338,-9226.723946
1429.865093,-3541.377448,363.709035,-9245.866526
1429.867625,-325.423874,-421.136778,-9073.583299
1429.870156,1703.689691,1359.123237,-8977.870395
1429.872688,-1952.543242,-2507.678085,-9016.155557
1429.875220,1014.556782,459.421939,-9016.155557
1429.877751,-306.281293,555.134843,-9379.864592
1429.880283,267.996131,-229.710970,-9399.007173
1429.882815,957.129040,1244.267752,-8805.587168
1429.885346,-650.847747,-1129.412267,-9111.868461
1429.887878,765.703232,2450.250342,-8939.585234
1429.890410,-1531.406464,-1129.412267,-9303.294269
1429.892941,1378.265818,2143.969050,-9188.438784
1429.895473,-937.986459,899.701298,-9035.298138
1429.898005,-689.132909,-631.705166,-9111.868461
1429.900536,-497.707101,-363.709035,-8901.300072
1429.903068,-210.568389,-593.420005,-9054.440718
1429.905600,-172.283227,2392.822600,-9073.583299
1429.908131,-344.566454,1722.832272,-9226.723946
1429.910663,937.986459,1110.269686,-9207.581365
1429.913195,-1186.840010,-1856.830338,-9073.583299
1429.915726,2105.683888,1263.410333,-9111.868461
1429.918258,-3273.381317,-1952.543242,-8786.444587
1429.920790,-1818.545176,-1167.697429,-8671.589102
1429.923321,-3483.949706,-803.988394,-8882.157491
1429.925853,-2105.683888,401.994197,-9169.296203
1429.928385,-1320.838075,1091.127106,-9360.722011
1429.930916,-267.996131,-287.138712,-9054.440718
1429.933448,880.558717,-1033.699363,-8882.157491
1429.935980,-497.707101,-2565.105827,-8997.012976
1429.938511,-1091.127106,-803.988394,-8977.870395
1429.941043,-2507.678085,880.558717,-8824.729749
1429.943575,-1148.554848,1473.978722,-8958.727814
1429.946106,-2316.252277,-612.562586,-9073.583299
1429.948638,-1014.556782,-1837.687757,-9092.725880
1429.951187,-1416.550979,-1627.119368,-8786.444587
1429.953736,-76.570323,191.425808,-8920.442653
1429.956285,-1875.972918,4096.512291,-9379.864592
1429.958834,-3407.379382,-2737.389054,-9169.296203
1429.961383,38.285162,2277.967115,-8977.870395
1429.963933,-3464.807125,-5455.635528,-9207.581365
1429.966482,2947.957443,3866.801322,-9073.583299
1429.969031,-2967.100024,-2411.965181,-8786.444587
1429.971580,-2163.111630,-76.570323,-8748.159426
1429.974129,-2431.107762,-363.709035,-8805.587168
1429.976678,-1875.972918,-2048.256146,-9322.436850
1429.979227,19.142581,1856.830338,-8901.300072
1429.981776,-1799.402595,-1512.263883,-9226.723946
1429.984325,133.998066,-880.558717,-8805.587168
1429.986874,-2105.683888,-1244.267752,-8920.442653
1429.989423,-401.994197,153.140646,-8958.727814
1429.991972,-1722.832272,421.136778,-9035.298138
1429.994521,-478.564520,899.701298,-9226.723946
1429.997071,-842.273555,-1780.260014,-8977.870395
1429.999620,-1818.545176,-2067.398726,-8882.157491
1430.002169,-3024.527766,-2316.252277,-8805.587168
1430.004718,-746.560651,2488.535504,-8977.870395
1430.007267,-555.134843,746.560651,-9131.011042
1430.009816,2048.256146,3713.660675,-9188.438784
1430.012365,1722.832272,-976.271621,-9226.723946
1430.014914,1186.840010,-153.140646,-9303.294269
1430.017463,-172.283227,-1014.556782,-8863.014910
1430.020012,-1627.119368,267.996131,-8767.302006
1430.022561,-2699.103893,1263.410333,-9092.725880
1430.025110,-1282.552914,1052.841944,-9303.294269
1430.027660,-210.568389,555.134843,-9188.438784
1430.030209,1014.556782,-363.709035,-9131.011042
1430.032758,2143.969050,-325.423874,-9188.438784
1430.035307,574.277424,-38.285162,-9073.583299
1430.037856,-57.427742,1339.980656,-8901.300072
1430.040405,-2105.683888,669.990328,-8767.302006
1430.042954,-325.423874,1110.269686,-9379.864592
1430.045503,-2143.969050,976.271621,-9418.149754
1430.048052,153.140646,-612.562586,-9245.866526
1430.050601,765.703232,1148.554848,-8767.302006
1430.053163,-727.418070,823.130974,-9073.583299
1430.055725,-1148.554848,535.992262,-9131.011042
1430.058286,-497.707101,1091.127106,-9341.579430
1430.060848,229.710970,535.992262,-9169.296203
1430.063410,306.281293,-325.423874,-9207.581365
1430.065972,650.847747,210.568389,-9073.583299
1430.068533,-401.994197,-76.570323,-9092.725880
1430.071095,421.136778,1225.125171,-9207.581365
1430.073657,210.568389,918.843878,-9284.151688
1430.076219,-401.994197,-229.710970,-9111.868461
1430.078780,-440.279358,382.851616,-9111.868461
1430.081342,-1531.406464,-1282.552914,-9150.153622
1430.083904,57.427742,1167.697429,-8863.014910
1430.086466,-765.703232,1110.269686,-9150.153622
1430.089027,1071.984525,1359.123237,-9284.151688
1430.091589,631.705166,-861.416136,-9207.581365
1430.094151,-325.423874,-574.277424,-9169.296203
1430.096713,421.136778,229.710970,-8997.012976
1430.099274,-2584.248408,-1167.697429,-8709.874264
1430.101836,-3177.668413,-1799.402595,-8767.302006
1430.104398,-3177.668413,-382.851616,-8786.444587
1430.106960,-1761.117434,-765.703232,-9341.579430
1430.109521,459.421939,2067.398726,-9207.581365
1430.112083,-612.562586,-593.420005,-9035.298138
1430.114645,306.281293,-1378.265818,-8824.729749
1430.117207,-650.847747,-1856.830338,-8939.585234
1430.119768,-1167.697429,-1205.982590,-8958.727814
1430.122330,-1895.115499,1359.123237,-8920.442653
1430.124892,-2699.103893,880.558717,-8977.870395
1430.127454,-1971.685822,-516.849682,-9016.155557
1430.130015,-650.847747,-2373.680019,-9092.725880
1430.132577,0.000000,-1531.406464,-8939.585234
1430.135148,1110.269686,-153.140646,-8786.444587
1430.137720,-2029.113565,1320.838075,-9054.440718
1430.140291,-1952.543242,-95.712904,-9226.723946
1430.142863,-1646.261949,1531.406464,-9284.151688
1430.145434,-3024.527766,-3043.670347,-9073.583299
1430.148006,-401.994197,669.990328,-8958.727814
1430.150577,-2526.820666,191.425808,-8939.585234
1430.153148,-1110.269686,401.994197,-8824.729749
1430.155720,-3388.236802,-918.843878,-9054.440718
1430.158291,-1091.127106,-823.130974,-9245.866526
1430.160863,-421.136778,114.855485,-8958.727814
1430.163434,-2009.970984,-2086.541307,-8958.727814
1430.166006,-57.427742,1186.840010,-8863.014910
1430.168577,-2258.824534,-459.421939,-9016.155557
1430.171148,38.285162,957.129040,-9054.440718
1430.173720,-689.132909,-191.425808,-9169.296203
1430.176291,-1761.117434,-3369.094221,-9092.725880
1430.178863,-1646.261949,-765.703232,-8786.444587
1430.181434,-2565.105827,-612.562586,-8863.014910
1430.184006,-727.418070,3771.088418,-8997.012976
1430.186577,-1550.549045,1186.840010,-9322.436850
1430.189148,3120.240670,1225.125171,-9418.149754
1430.191720,1665.404530,-612.562586,-9341.579430
1430.194291,1856.830338,114.855485,-9111.868461
1430.196863,-880.558717,-669.990328,-8786.444587
1430.199434,-1569.691626,421.136778,-8767.302006
1430.202006,-2813.959378,937.986459,-9150.153622
1430.204577,-1761.117434,803.988394,-9245.866526
1430.207148,287.138712,2124.826469,-9265.009107
1430.209720,574.277424,-803.988394,-9226.723946
1430.212291,2928.814862,191.425808,-9092.725880
1430.214863,401.994197,-267.996131,-9169.296203
1430.217434,-1607.976787,2067.398726,-9092.725880
1430.220006,-842.273555,-344.566454,-8595.018779
1430.222577,2029.113565,363.709035,-9456.434915
1430.225148,1339.980656,899.701298,-9054.440718
1430.227720,-2986.242605,267.996131,-8958.727814
1430.230291,-306.281293,76.570323,-8709.874264
1430.232863,1856.830338,1339.980656,-8977.870395
1430.235434,-114.855485,-823.130974,-9360.722011
1430.238011,421.136778,1588.834206,-9131.011042
1430.240588,-267.996131,-153.140646,-9226.723946
1430.243165,363.709035,497.707101,-9111.868461
1430.245742,1014.556782,1320.838075,-8939.585234
1430.248319,-76.570323,-19.142581,-9303.294269
1430.250896,-267.996131,1416.550979,-9150.153622
1430.253473,-593.420005,-823.130974,-9111.868461
1430.256050,76.570323,-19.142581,-9035.298138
1430.258627,-1895.115499,-133.998066,-9054.440718
1430.261204,-650.847747,1607.976787,-8977.870395
1430.263781,172.283227,2277.967115,-8977.870395
1430.266358,937.986459,497.707101,-9303.294269
1430.268935,267.996131,-1856.830338,-9245.866526
1430.271512,650.847747,1167.697429,-9131.011042
1430.274089,-880.558717,-1320.838075,-8863.014910
1430.276666,-2507.678085,-57.427742,-8690.731683
1430.279243,-5149.354235,-2813.959378,-8805.587168
1430.281820,-2124.826469,1129.412267,-9131.011042
1430.284397,-1627.119368,-114.855485,-9437.292334
1430.286974,1148.554848,440.279358,-9111.868461
1430.289551,593.420005,-421.136778,-8843.872330
1430.292128,-861.416136,-2450.250342,-8939.585234
1430.294705,-287.138712,-574.277424,-8997.012976
1430.297282,-2143.969050,-957.129040,-8882.157491
1430.299859,-1722.832272,1320.838075,-8882.157491
1430.302436,-1627.119368,478.564520,-8997.012976
1430.305013,-1780.260014,-574.277424,-9322.436850
1430.307590,-57.427742,-1359.123237,-9188.438784
1430.310167,-3215.953574,1167.697429,-9303.294269
1430.312744,-1914.258080,-1186.840010,-8863.014910
1430.315321,784.845813,-267.996131,-8824.729749
1430.317898,1416.550979,-2143.969050,-9131.011042
1430.320475,-689.132909,1244.267752,-9035.298138
1430.323052,-2833.101958,-2182.254211,-8614.161360
1430.325629,-1148.554848,1627.119368,-8997.012976
1430.328206,-3369.094221,-1014.556782,-9111.868461
1430.330783,497.707101,535.992262,-8977.870395
1430.333360,-1933.400661,-1339.980656,-8977.870395
1430.335937,-1435.693560,-995.414202,-9016.155557
1430.338514,-2335.394858,-784.845813,-8958.727814
1430.341095,-1665.404530,-708.275490,-9111.868461
1430.343676,-401.994197,1378.265818,-8920.442653
1430.346257,-995.414202,-267.996131,-9035.298138
1430.348838,0.000000,-1569.691626,-9092.725880
1430.351419,-1990.828403,-2507.678085,-9035.298138
1430.354000,-2143.969050,-899.701298,-8920.442653
1430.356582,-2431.107762,1780.260014,-8863.014910
1430.359163,287.138712,1627.119368,-9035.298138
1430.361744,2699.103893,3043.670347,-9169.296203
1430.364325,1397.408398,-2009.970984,-9494.720077
1430.366906,3120.240670,1627.119368,-9341.579430
1430.369487,-937.986459,-1531.406464,-9016.155557
1430.372069,-803.988394,1282.552914,-8556.733618
1430.374650,-2756.531635,-459.421939,-8958.727814
1430.377231,-1186.840010,1282.552914,-9188.438784
1430.379812,-1244.267752,535.992262,-9284.151688
1430.382393,267.996131,535.992262,-9226.723946
1430.384974,1225.125171,421.136778,-9245.866526
1430.387555,1225.125171,-401.994197,-9111.868461
1430.390137,1033.699363,287.138712,-8671.589102
1430.392718,-2660.818731,727.418070,-8939.585234
1430.395299,-842.273555,2392.822600,-9341.579430
1430.397880,-2699.103893,-1550.549045,-9743.573627
1430.400461,1607.976787,382.851616,-8939.585234
1430.403042,-2679.961312,1971.685822,-8537.591037
1430.405623,-2967.100024,-689.132909,-9322.436850
1430.408205,2794.816797,2986.242605,-9131.011042
1430.410786,-937.986459,-2871.387120,-9743.573627
1430.413367,2201.396792,2354.537438,-8958.727814
1430.415948,-1665.404530,-995.414202,-8977.870395
1430.418529,2009.970984,1837.687757,-9073.583299
1430.421110,937.986459,1512.263883,-8920.442653
1430.423691,-497.707101,-1014.556782,-9188.438784
1430.426273,-267.996131,708.275490,-9131.011042
1430.428854,-1875.972918,-1895.115499,-9188.438784
1430.431435,38.285162,2124.826469,-9073.583299
1430.434016,-918.843878,1531.406464,-9092.725880
1430.436597,1282.552914,1646.261949,-8901.300072
1430.439178,746.560651,-669.990328,-9054.440718
1430.441759,76.570323,-784.845813,-9284.151688
1430.444344,516.849682,555.134843,-9169.296203
1430.446929,-2718.246474,-1225.125171,-8863.014910
1430.449514,-2871.387120,-1014.556782,-8633.303941
1430.452099,-4383.651003,-1205.982590,-8690.731683
1430.454683,-1627.119368,-19.142581,-9207.581365
1430.457268,-918.843878,1397.408398,-9399.007173
1430.459853,-574.277424,-995.414202,-9073.583299
1430.462438,1359.123237,-650.847747,-8805.587168
1430.465022,-1052.841944,-2947.957443,-8901.300072
1430.467607,-1014.556782,114.855485,-8920.442653
1430.470192,-3656.232933,172.283227,-8977.870395
1430.472777,-2316.252277,459.421939,-8824.729749
1430.475361,-1914.258080,210.568389,-8958.727814
1430.477946,-669.990328,-1225.125171,-9494.720077
1430.480531,-1091.127106,-1320.838075,-8863.014910
1430.483116,918.843878,-57.427742,-8767.302006
1430.485700,-3694.518094,1971.685822,-8882.157491
1430.488285,-1225.125171,-5666.203917,-9245.866526
1430.490870,3235.096155,4594.219392,-9150.153622
1430.493455,-4689.932296,-5225.924558,-8824.729749
1430.496039,0.000000,2947.957443,-8403.592971
1430.498624,-3790.230998,-1512.263883,-9245.866526
1430.501209,-861.416136,-325.423874,-9054.440718
1430.503794,-803.988394,-38.285162,-8920.442653
1430.506378,-2431.107762,-2565.105827,-9169.296203
1430.508963,-363.709035,555.134843,-8882.157491
1430.511548,-899.701298,-765.703232,-9016.155557
1430.514133,-803.988394,1320.838075,-8977.870395
1430.516718,-1033.699363,-191.425808,-8939.585234
1430.519302,-1397.408398,-3158.525832,-8977.870395
1430.521887,-1856.830338,-1186.840010,-8920.442653
1430.524472,-1473.978722,-306.281293,-9111.868461
1430.527057,-784.845813,4230.510357,-9188.438784
1430.529641,-2967.100024,-363.709035,-9111.868461
1430.532226,3349.951640,2411.965181,-8997.012976
1430.534811,1856.830338,-1435.693560,-9360.722011
1430.537396,2354.537438,-267.996131,-9303.294269
1430.539980,38.285162,210.568389,-8709.874264
1430.542565,-2488.535504,95.712904,-8729.016845
1430.545150,-2928.814862,803.988394,-9092.725880
1430.547690,-1856.830338,497.707101,-9226.723946
1430.550230,957.129040,1301.695494,-9131.011042
1430.552770,574.277424,593.420005,-9207.581365
1430.555310,1244.267752,38.285162,-9245.866526
1430.557850,727.418070,-669.990328,-9016.155557
1430.560390,-1818.545176,2105.683888,-9016.155557
1430.562930,-1990.828403,1837.687757,-8843.872330
1430.565471,-1282.552914,-2775.674216,-9322.436850
1430.568011,5359.922624,3273.381317,-9341.579430
1430.570551,-6451.049730,-1014.556782,-9303.294269
1430.573091,1320.838075,555.134843,-8327.022648
1430.575631,3713.660675,4173.082614,-9035.298138
1430.578171,-1225.125171,-2928.814862,-9839.286531
1430.580711,2411.965181,2565.105827,-9245.866526
1430.583251,-1091.127106,-957.129040,-9016.155557
1430.585791,2105.683888,2411.965181,-8863.014910
1430.588331,-1493.121302,153.140646,-9035.298138
1430.590871,95.712904,-746.560651,-9111.868461
1430.593411,-957.129040,689.132909,-9016.155557
1430.595952,-1722.832272,76.570323,-9169.296203
1430.598492,-287.138712,1990.828403,-9188.438784
1430.601032,210.568389,1875.972918,-9188.438784
1430.603572,1665.404530,650.847747,-9150.153622
1430.606112,95.712904,-1569.691626,-8958.727814
1430.608652,287.138712,612.562586,-9111.868461
1430.611192,-1091.127106,-1071.984525,-9150.153622
1430.613732,-2124.826469,555.134843,-8863.014910
1430.616272,-4632.504554,-2392.822600,-8882.157491
1430.618812,-3483.949706,746.560651,-8939.585234
1430.621352,-1569.691626,-918.843878,-9379.864592
1430.623892,976.271621,1952.543242,-9131.011042
1430.626433,-459.421939,-995.414202,-9054.440718
1430.628973,612.562586,-1244.267752,-8901.300072
1430.631513,-727.418070,-2067.398726,-9016.155557
1430.634053,-1761.117434,-459.421939,-8863.014910
1430.636593,-3196.810994,1416.550979,-8882.157491
1430.639133,-3560.520029,95.712904,-9035.298138
1430.641673,-325.423874,-1225.125171,-9111.868461
1430.644213,382.851616,-3273.381317,-9341.579430
1430.646753,2737.389054,2469.392923,-8575.876198
1430.649305,-6451.049730,-4555.934230,-8786.444587
1430.651856,2009.970984,-3043.670347,-8901.300072
1430.654407,1397.408398,3330.809059,-9226.723946
1430.656958,-5034.498750,-4689.932296,-9188.438784
1430.659510,325.423874,3962.514226,-8556.733618
1430.662061,-4307.080680,-3905.086483,-9073.583299
1430.664612,1703.689691,2871.387120,-8920.442653
1430.667163,-3771.088418,-3694.518094,-9150.153622
1430.669715,-631.705166,191.425808,-8863.014910
1430.672266,-1301.695494,421.136778,-8977.870395
1430.674817,-172.283227,-191.425808,-9265.009107
1430.677369,-133.998066,612.562586,-8958.727814
1430.679920,-784.845813,-631.705166,-8997.012976
1430.682471,-2756.531635,-1588.834206,-8901.300072
1430.685022,-2967.100024,-2086.541307,-8843.872330
1430.687574,-1416.550979,689.132909,-9150.153622
1430.690125,-1186.840010,1454.836141,-9456.434915
1430.692676,-306.281293,2488.535504,-9169.296203
1430.695227,1971.685822,-153.140646,-9092.725880
1430.697779,2354.537438,210.568389,-9360.722011
1430.700330,1531.406464,-306.281293,-9188.438784
1430.702881,-287.138712,421.136778,-8920.442653
1430.705433,-2009.970984,133.998066,-8824.729749
1430.707984,-2737.389054,650.847747,-9016.155557
1430.710535,-1895.115499,1110.269686,-9245.866526
1430.713086,1091.127106,765.703232,-9150.153622
1430.715638,1799.402595,650.847747,-9207.581365
1430.718189,1091.127106,-229.710970,-9284.151688
1430.720740,1627.119368,-1033.699363,-8901.300072
1430.723291,-2143.969050,918.843878,-8901.300072
1430.725843,325.423874,-1282.552914,-8556.733618
1430.728394,2239.681954,2469.392923,-9284.151688
1430.730945,-784.845813,-2431.107762,-9131.011042
1430.733497,2507.678085,1627.119368,-8135.596840
1430.736048,-2967.100024,287.138712,-9150.153622
1430.738599,516.849682,1378.265818,-9533.005238
1430.741150,1359.123237,593.420005,-9571.290400
1430.743702,1052.841944,-516.849682,-9265.009107
1430.746253,861.416136,2756.531635,-8843.872330
1430.748804,-1837.687757,-995.414202,-9188.438784
1430.751365,267.996131,976.271621,-9169.296203
1430.753925,-1627.119368,-1646.261949,-8958.727814
1430.756485,-516.849682,842.273555,-9131.011042
1430.759046,-1837.687757,1607.976787,-9092.725880
1430.761606,995.414202,2297.109696,-9245.866526
1430.764166,1320.838075,803.988394,-9265.009107
1430.766727,765.703232,-2277.967115,-9054.440718
1430.769287,1167.697429,1225.125171,-8958.727814
1430.771848,-2029.113565,-2009.970984,-9035.298138
1430.774408,-2067.398726,995.414202,-8786.444587
1430.776968,-5206.781978,-2565.105827,-8843.872330
1430.779529,-1875.972918,1033.699363,-8863.014910
1430.782089,-2584.248408,-1148.554848,-9341.579430
1430.784649,918.843878,2029.113565,-9226.723946
1430.787210,-574.277424,-229.710970,-8977.870395
1430.789770,-210.568389,-1990.828403,-8997.012976
1430.792330,-363.709035,-1052.841944,-9035.298138
1430.794891,-2641.676150,-1378.265818,-8997.012976
1430.797451,-2431.107762,1684.547110,-8863.014910
1430.800012,-3292.523898,823.130974,-8997.012976
1430.802572,-746.560651,-440.279358,-8977.870395
1430.805132,-1148.554848,631.705166,-9513.862658
1430.807693,-3139.383251,-478.564520,-8939.585234
1430.810253,-3407.379382,995.414202,-8977.870395
1430.812813,287.138712,-1205.982590,-9284.151688
1430.815374,478.564520,-133.998066,-9150.153622
1430.817934,-2411.965181,-1186.840010,-8843.872330
1430.820495,-2124.826469,-229.710970,-8729.016845
1430.823055,-1990.828403,-631.705166,-8901.300072
1430.825615,-535.992262,-612.562586,-9092.725880
1430.828176,-1473.978722,-267.996131,-8920.442653
1430.830736,-1780.260014,-1473.978722,-8977.870395
1430.833296,-248.853550,1263.410333,-9131.011042
1430.835857,-497.707101,-191.425808,-9188.438784
1430.838417,535.992262,363.709035,-8977.870395
1430.840978,-2756.531635,-3407.379382,-9035.298138
1430.843538,-2679.961312,-1646.261949,-8671.589102
1430.846098,-3158.525832,746.560651,-8958.727814
1430.848659,-248.853550,3598.805190,-9494.720077
1430.851219,-1320.838075,191.425808,-9360.722011
1430.853786,3503.092286,918.843878,-9092.725880
1430.856353,1722.832272,-803.988394,-9092.725880
1430.858920,1665.404530,669.990328,-9131.011042
1430.861487,-248.853550,478.564520,-8824.729749
1430.864055,-1780.260014,344.566454,-8997.012976
1430.866622,-2163.111630,631.705166,-9169.296203
1430.869189,-2354.537438,114.855485,-9169.296203
1430.871756,937.986459,2086.541307,-9131.011042
1430.874323,363.709035,363.709035,-9303.294269
1430.876890,2067.398726,-38.285162,-9265.009107
1430.879457,1033.699363,1071.984525,-9360.722011
1430.882024,-1473.978722,1627.119368,-8939.585234
1430.884591,-1665.404530,3235.096155,-9150.153622
1430.887158,-2297.109696,-918.843878,-9667.003304
1430.889725,3215.953574,210.568389,-9035.298138
1430.892293,-382.851616,937.986459,-8499.305875
1430.894860,-2622.533570,-172.283227,-9054.440718
1430.897427,976.271621,2220.539373,-9303.294269
1430.899994,1435.693560,-976.271621,-9724.431046
1430.902561,1971.685822,2507.678085,-9073.583299
1430.905128,-1052.841944,382.851616,-8920.442653
1430.907695,-459.421939,172.283227,-9092.725880
1430.910262,-363.709035,0.000000,-8997.012976
1430.912829,-918.843878,-287.138712,-9073.583299
1430.915396,-1148.554848,1703.689691,-9150.153622
1430.917964,-689.132909,1014.556782,-9150.153622
1430.920531,1990.828403,2009.970984,-9169.296203
1430.923098,1397.408398,-1378.265818,-9188.438784
1430.925665,-650.847747,-497.707101,-9092.725880
1430.928232,172.283227,-497.707101,-8997.012976
1430.930799,-2507.678085,-363.709035,-8767.302006
1430.933366,-3598.805190,-1990.828403,-8748.159426
1430.935933,-3311.666478,325.423874,-8901.300072
1430.938500,-2431.107762,-1071.984525,-9284.151688
1430.941067,57.427742,1454.836141,-9169.296203
1430.943634,-880.558717,-1722.832272,-9035.298138
1430.946202,1416.550979,-306.281293,-8958.727814
1430.948769,-1244.267752,-2143.969050,-9169.296203
1430.951336,-1167.697429,-937.986459,-8958.727814
1430.953903,-3062.812928,57.427742,-8939.585234
1430.956475,-3120.240670,1416.550979,-8977.870395
1430.959048,-1416.550979,-1301.695494,-8920.442653
1430.961620,746.560651,-2009.970984,-9150.153622
1430.964193,1052.841944,459.421939,-8709.874264
1430.966765,-3043.670347,-2699.103893,-8671.589102
1430.969337,1301.695494,1129.412267,-8997.012976
1430.971910,-2871.387120,478.564520,-9705.288466
1430.974482,-1167.697429,-229.710970,-8843.872330
1430.977055,-2009.970984,-516.849682,-8595.018779
1430.979627,-2928.814862,-1837.687757,-9073.583299
1430.982199,-861.416136,363.709035,-8997.012976
1430.984772,-2201.396792,-1282.552914,-9111.868461
1430.987344,-803.988394,382.851616,-9073.583299
1430.989917,-1014.556782,-497.707101,-9131.011042
1430.992489,248.853550,287.138712,-9188.438784
1430.995062,-133.998066,-1091.127106,-8997.012976
1430.997634,-1722.832272,-1033.699363,-8939.585234
1431.000206,-3598.805190,-1512.263883,-8767.302006
1431.002779,-1627.119368,1646.261949,-8958.727814
1431.005351,-478.564520,765.703232,-9226.723946
1431.007924,899.701298,2679.961312,-9399.007173
1431.010496,2143.969050,-574.277424,-9379.864592
1431.013068,2488.535504,976.271621,-9188.438784
1431.015641,306.281293,-57.427742,-9131.011042
1431.018213,-1052.841944,440.279358,-8843.872330
1431.020786,-1722.832272,153.140646,-9016.155557
1431.023358,-1971.685822,1167.697429,-9092.725880
1431.025931,-1014.556782,478.564520,-9150.153622
1431.028503,229.710970,1033.699363,-9035.298138
1431.031075,1588.834206,689.132909,-9341.579430
1431.033648,1684.547110,574.277424,-9284.151688
1431.036220,1607.976787,38.285162,-8729.016845
1431.038793,38.285162,1052.841944,-8843.872330
1431.041365,-2526.820666,535.992262,-9284.151688
1431.043937,-555.134843,306.281293,-9571.290400
1431.046510,-267.996131,478.564520,-9207.581365
1431.049082,478.564520,248.853550,-8422.735552
1431.051655,153.140646,535.992262,-9073.583299
1431.054227,937.986459,765.703232,-9552.147819
1431.056800,1741.974853,746.560651,-9265.009107
1431.059339,325.423874,497.707101,-8920.442653
1431.061878,-459.421939,478.564520,-8901.300072
1431.064417,-784.845813,248.853550,-8958.727814
1431.066956,-1875.972918,-497.707101,-9092.725880
1431.069496,-574.277424,765.703232,-9016.155557
1431.072035,287.138712,1933.400661,-9226.723946
1431.074574,1167.697429,1033.699363,-9284.151688
1431.077113,1512.263883,-650.847747,-9169.296203
1431.079652,19.142581,-612.562586,-9016.155557
1431.082191,-746.560651,-382.851616,-8863.014910
1431.084731,-2794.816797,-76.570323,-8709.874264
1431.087270,-3924.229064,-1818.545176,-8901.300072
1431.089809,-2813.959378,210.568389,-8977.870395
1431.092348,-2086.541307,-421.136778,-9341.579430
1431.094887,-267.996131,995.414202,-9188.438784
1431.097427,172.283227,-708.275490,-8920.442653
1431.099966,248.853550,-1244.267752,-8997.012976
1431.102505,-727.418070,-1454.836141,-9035.298138
1431.105044,-1531.406464,-1416.550979,-8920.442653
1431.107583,-2411.965181,631.705166,-8767.302006
1431.110123,-3713.660675,0.000000,-8997.012976
1431.112662,-210.568389,-344.566454,-9035.298138
1431.115201,-1531.406464,1473.978722,-9494.720077
1431.117740,-6431.907149,-2411.965181,-9188.438784
1431.120279,899.701298,-2239.681954,-8518.448456
1431.122819,1397.408398,2488.535504,-9111.868461
1431.125358,-3771.088418,-3522.234867,-9169.296203
1431.127897,95.712904,2450.250342,-8767.302006
1431.130436,-4230.510357,-2469.392923,-8863.014910
1431.132975,-574.277424,1129.412267,-8805.587168
1431.135514,-3924.229064,-2009.970984,-9207.581365
1431.138054,-1263.410333,-976.271621,-9284.151688
1431.140593,-440.279358,803.988394,-8977.870395
1431.143132,-57.427742,-842.273555,-9169.296203
1431.145671,95.712904,-153.140646,-9035.298138
1431.148210,-2660.818731,-1818.545176,-8863.014910
1431.150750,-2565.105827,-1244.267752,-8824.729749
1431.153289,-3196.810994,708.275490,-8920.442653
1431.155828,-76.570323,1301.695494,-9188.438784
1431.158367,153.140646,1665.404530,-9226.723946
1431.160917,2775.674216,-306.281293,-9456.434915
1431.163467,2392.822600,1186.840010,-9303.294269
1431.166016,765.703232,-478.564520,-9073.583299
1431.168566,-650.847747,708.275490,-8671.589102
1431.171116,-1990.828403,210.568389,-8958.727814
1431.173665,-2354.537438,555.134843,-9169.296203
1431.176215,-1397.408398,1110.269686,-9150.153622
1431.178764,76.570323,1014.556782,-8977.870395
1431.181314,937.986459,555.134843,-9226.723946
1431.183864,2775.674216,-114.855485,-9169.296203
1431.186413,325.423874,440.279358,-9016.155557
1431.188963,-3120.240670,-153.140646,-8920.442653
1431.191513,1722.832272,0.000000,-8920.442653
1431.194062,1933.400661,-689.132909,-9265.009107
1431.196612,2392.822600,765.703232,-8843.872330
1431.199161,-1454.836141,-210.568389,-8556.733618
1431.201711,459.421939,823.130974,-9016.155557
1431.204261,1493.121302,1531.406464,-9533.005238
1431.206810,1282.552914,114.855485,-9322.436850
1431.209360,172.283227,957.129040,-9054.440718
1431.211909,-1741.974853,-535.992262,-9016.155557
1431.214459,-708.275490,0.000000,-8958.727814
1431.217009,-1205.982590,153.140646,-8958.727814
1431.219558,-593.420005,1378.265818,-9265.009107
1431.222108,440.279358,2277.967115,-9303.294269
1431.224658,1741.974853,267.996131,-9418.149754
1431.227207,1014.556782,-1780.260014,-9150.153622
1431.229757,784.845813,382.851616,-8997.012976
1431.232306,-2469.392923,-1416.550979,-8690.731683
1431.234856,-3158.525832,-38.285162,-8614.161360
1431.237406,-5034.498750,-1550.549045,-8824.729749
1431.239955,-2450.250342,612.562586,-9245.866526
1431.242505,-1416.550979,-401.994197,-9418.149754
1431.245054,765.703232,803.988394,-9111.868461
1431.247604,-57.427742,-650.847747,-8786.444587
1431.250154,-306.281293,-1646.261949,-8939.585234
1431.252703,-574.277424,-574.277424,-9016.155557
1431.255253,-3043.670347,-765.703232,-8939.585234
1431.257803,-2182.254211,344.566454,-8633.303941
1431.260352,-3943.371645,-803.988394,-9131.011042
1431.262910,1473.978722,-1397.408398,-9169.296203
1431.265467,1646.261949,574.277424,-8920.442653
1431.268025,-2871.387120,-3483.949706,-8786.444587
1431.270582,-1627.119368,-1052.841944,-8863.014910
1431.273140,650.847747,1301.695494,-9150.153622
1431.275698,-3311.666478,-2641.676150,-9188.438784
1431.278255,-1301.695494,1186.840010,-8518.448456
1431.280813,-3943.371645,-2928.814862,-8901.300072
1431.283370,-669.990328,1646.261949,-9035.298138
1431.285928,-1703.689691,-1703.689691,-9169.296203
1431.288485,287.138712,976.271621,-9169.296203
1431.291043,-363.709035,172.283227,-9150.153622
1431.293601,-440.279358,-880.558717,-9035.298138
1431.296158,-2431.107762,-1761.117434,-8709.874264
1431.298716,-3158.525832,-1301.695494,-8824.729749
1431.301273,-1914.258080,2124.826469,-8901.300072
1431.303831,-1914.258080,1320.838075,-9265.009107
1431.306389,325.423874,1550.549045,-9322.436850
1431.308946,2411.965181,-937.986459,-9475.577496
1431.311504,3637.090352,1320.838075,-9169.296203
1431.314061,516.849682,0.000000,-9016.155557
1431.316619,-1148.554848,823.130974,-8690.731683
1431.319176,-2258.824534,382.851616,-8997.012976
1431.321734,-2297.109696,287.138712,-9341.579430
1431.324292,-1110.269686,1148.554848,-9245.866526
1431.326849,-497.707101,1071.984525,-9092.725880
1431.329407,1454.836141,133.998066,-9131.011042
1431.331964,1588.834206,1186.840010,-9533.005238
1431.334522,421.136778,861.416136,-8863.014910
1431.337079,-1263.410333,-631.705166,-8748.159426
1431.339637,-516.849682,784.845813,-9150.153622
1431.342195,-861.416136,669.990328,-9475.577496
1431.344752,-803.988394,995.414202,-9111.868461
1431.347310,-210.568389,727.418070,-8863.014910
1431.349867,1875.972918,612.562586,-9111.868461
1431.352425,823.130974,-114.855485,-9552.147819
1431.354982,1263.410333,1244.267752,-9303.294269
1431.357540,-765.703232,-248.853550,-8920.442653
1431.360098,-535.992262,555.134843,-8958.727814
1431.362655,-2086.541307,555.134843,-8939.585234
1431.365186,-1454.836141,1205.982590,-8977.870395
1431.367717,287.138712,2048.256146,-9379.864592
1431.370248,1205.982590,287.138712,-9475.577496
1431.372778,1684.547110,-1359.123237,-9150.153622
1431.375309,765.703232,229.710970,-8977.870395
1431.377840,-1359.123237,-708.275490,-8901.300072
1431.380371,-3120.240670,114.855485,-8633.303941
1431.382902,-4383.651003,-2469.392923,-8671.589102
1431.385432,-2756.531635,76.570323,-9150.153622
1431.387963,-1205.982590,-899.701298,-9437.292334
1431.390494,555.134843,1339.980656,-9111.868461
1431.393025,-248.853550,-1397.408398,-8901.300072
1431.395556,516.849682,-1301.695494,-8843.872330
1431.398087,-861.416136,-1282.552914,-9035.298138
1431.400617,-1703.689691,-861.416136,-9016.155557
1431.403148,-3062.812928,1646.261949,-9035.298138
1431.405679,-2775.674216,-1263.410333,-8901.300072
1431.408210,3369.094221,1320.838075,-8977.870395
1431.410741,-3177.668413,-3024.527766,-9188.438784
1431.413271,497.707101,2373.680019,-8863.014910
1431.415802,-3541.377448,-918.843878,-8920.442653
1431.418333,-2297.109696,-708.275490,-9245.866526
1431.420864,-1569.691626,1301.695494,-9150.153622
1431.423395,-3254.238736,-3081.955509,-9054.440718
1431.425926,-1014.556782,1569.691626,-8805.587168
1431.428456,-3177.668413,-2526.820666,-9188.438784
1431.430987,957.129040,1167.697429,-9131.011042
1431.433518,-861.416136,-229.710970,-9150.153622
1431.436049,1129.412267,191.425808,-9111.868461
1431.438580,-1359.123237,-1952.543242,-8863.014910
1431.441110,-1952.543242,-1837.687757,-8729.016845
1431.443641,-3177.668413,-153.140646,-8767.302006
1431.446172,-2622.533570,2220.539373,-9169.296203
1431.448703,133.998066,210.568389,-9169.296203
1431.451234,2431.107762,1493.121302,-9341.579430
1431.453764,1569.691626,-1359.123237,-9475.577496
1431.456295,2986.242605,1263.410333,-9265.009107
1431.458826,229.710970,76.570323,-8920.442653
1431.461357,-1665.404530,1512.263883,-8652.446522
1431.463888,-2488.535504,57.427742,-9111.868461
1431.466430,-1837.687757,535.992262,-9456.434915
1431.468972,-861.416136,1110.269686,-9265.009107
1431.471514,765.703232,1512.263883,-9150.153622
1431.474056,918.843878,727.418070,-9322.436850
1431.476598,2584.248408,1033.699363,-9073.583299
1431.479141,-2354.537438,516.849682,-8958.727814
1431.481683,-1780.260014,-229.710970,-9035.298138
1431.484225,2488.535504,1244.267752,-9016.155557
1431.486767,-727.418070,612.562586,-9303.294269
1431.489309,-1052.841944,478.564520,-9188.438784
1431.491851,1071.984525,1856.830338,-8920.442653
1431.494393,842.273555,-746.560651,-9341.579430
1431.496936,2086.541307,1952.543242,-9207.581365
1431.499478,-1033.699363,-784.845813,-9188.438784
1431.502020,-612.562586,325.423874,-9016.155557
1431.504562,-2373.680019,555.134843,-8920.442653
1431.507104,-1244.267752,880.558717,-9035.298138
1431.509646,325.423874,2009.970984,-9265.009107
1431.512188,1378.265818,516.849682,-9418.149754
1431.514731,1780.260014,-689.132909,-9188.438784
1431.517273,57.427742,-1129.412267,-9073.583299
1431.519815,497.707101,114.855485,-8997.012976
1431.522357,-3273.381317,516.849682,-8709.874264
1431.524899,-5111.069074,-2373.680019,-8729.016845
1431.527441,-2928.814862,784.845813,-8786.444587
1431.529983,-2067.398726,-918.843878,-9456.434915
1431.532525,0.000000,727.418070,-9207.581365
1431.535068,803.988394,-1148.554848,-9035.298138
1431.537610,784.845813,-880.558717,-8843.872330
1431.540152,-842.273555,-1435.693560,-8882.157491
1431.542694,-1761.117434,-861.416136,-8882.157491
1431.545236,-3292.523898,267.996131,-8977.870395
1431.547788,-2105.683888,38.285162,-8843.872330
1431.550340,-708.275490,306.281293,-9245.866526
1431.552892,-1588.834206,-1263.410333,-9303.294269
1431.555444,210.568389,-1703.689691,-8614.161360
1431.557996,172.283227,689.132909,-8843.872330
1431.560548,-1263.410333,-574.277424,-9035.298138
1431.563100,-2584.248408,-555.134843,-9150.153622
1431.565652,-3445.664544,-861.416136,-8843.872330
1431.568204,-1971.685822,-555.134843,-8729.016845
1431.570756,-1320.838075,267.996131,-9016.155557
1431.573308,-612.562586,-746.560651,-9265.009107
1431.575860,555.134843,459.421939,-9035.298138
1431.578412,-497.707101,-1703.689691,-9092.725880
1431.580964,-1512.263883,-937.986459,-8709.874264
1431.583516,-3464.807125,-1684.547110,-8671.589102
1431.586068,-2450.250342,1550.549045,-8882.157491
1431.588620,-1512.263883,1416.550979,-9188.438784
1431.591172,-574.277424,1282.552914,-9341.579430
1431.593724,3158.525832,-38.285162,-9341.579430
1431.596276,2852.244539,95.712904,-9533.005238
1431.598828,1052.841944,248.853550,-9016.155557
1431.601380,-478.564520,1167.697429,-8652.446522
1431.603932,-2392.822600,306.281293,-8958.727814
1431.606484,-2718.246474,76.570323,-9226.723946
1431.609036,-918.843878,1014.556782,-9188.438784
1431.611588,-210.568389,746.560651,-9226.723946
1431.614140,1282.552914,1722.832272,-9169.296203
1431.616692,1684.547110,650.847747,-9494.720077
1431.619244,401.994197,-823.130974,-8939.585234
1431.621796,1646.261949,153.140646,-8537.591037
1431.624348,-76.570323,-899.701298,-8977.870395
1431.626899,-497.707101,1646.261949,-9399.007173
1431.629451,-2124.826469,38.285162,-9494.720077
1431.632003,2545.963246,2048.256146,-8920.442653
1431.634555,784.845813,-382.851616,-9092.725880
1431.637107,1627.119368,574.277424,-9284.151688
1431.639659,248.853550,1263.410333,-9188.438784
1431.642211,-650.847747,-1052.841944,-9035.298138
1431.644763,-937.986459,1397.408398,-8863.014910
1431.647315,-2622.533570,631.705166,-8997.012976
1431.649875,306.281293,2258.824534,-9245.866526
1431.652434,497.707101,114.855485,-9284.151688
1431.654993,2163.111630,-497.707101,-9207.581365
1431.657552,957.129040,459.421939,-9111.868461
1431.660112,-995.414202,-1761.117434,-9054.440718
1431.662671,-1914.258080,1282.552914,-8614.161360
1431.665230,-5608.776174,-3177.668413,-8671.589102
1431.667789,-3005.385186,1588.834206,-8786.444587
1431.670349,-2737.389054,-1378.265818,-9399.007173
1431.672908,440.279358,1033.699363,-9245.866526
1431.675467,172.283227,-1435.693560,-9035.298138
1431.678026,957.129040,-1071.984525,-8882.157491
1431.680586,-784.845813,-1607.976787,-8882.157491
1431.683145,-1799.402595,-19.142581,-9035.298138
1431.685704,-2833.101958,-995.414202,-8748.159426
1431.688263,-2029.113565,344.566454,-8748.159426
1431.690823,-1052.841944,1071.984525,-9245.866526
1431.693382,-1799.402595,-1512.263883,-9379.864592
1431.695941,803.988394,765.703232,-8614.161360
1431.698500,-3407.379382,-1454.836141,-9150.153622
1431.701060,-937.986459,784.845813,-8997.012976
1431.703619,-2813.959378,-1780.260014,-9092.725880
1431.706178,-2297.109696,382.851616,-8882.157491
1431.708737,-3388.236802,-1225.125171,-8882.157491
1431.711297,-823.130974,153.140646,-9054.440718
1431.713856,-306.281293,344.566454,-9245.866526
1431.716415,1052.841944,-172.283227,-9131.011042
1431.718974,-765.703232,-1722.832272,-8920.442653
1431.721534,-2871.387120,-1856.830338,-8843.872330
1431.724093,-2488.535504,440.279358,-8786.444587
1431.726652,-2220.539373,1971.685822,-9035.298138
1431.729211,-937.986459,555.134843,-9092.725880
1431.731771,1263.410333,1627.119368,-9188.438784
1431.734330,2086.541307,-803.988394,-9437.292334
1431.736889,2947.957443,478.564520,-9322.436850
1431.739448,669.990328,650.847747,-8958.727814
1431.742008,-1033.699363,803.988394,-8767.302006
1431.744567,-2373.680019,287.138712,-8939.585234
1431.747126,-2565.105827,535.992262,-9207.581365
1431.749686,-1167.697429,842.273555,-9265.009107
1431.752251,344.566454,1320.838075,-9341.579430
1431.754816,3062.812928,-1091.127106,-8939.585234
1431.757382,3503.092286,-478.564520,-9111.868461
1431.759947,-3388.236802,1818.545176,-8958.727814
1431.762512,-937.986459,-1971.685822,-8920.442653
1431.765078,4460.221326,3637.090352,-8824.729749
1431.767643,-4077.369710,-1550.549045,-9896.714274
1431.770209,842.273555,4230.510357,-8977.870395
1431.772774,-1052.841944,440.279358,-9207.581365
1431.775339,2124.826469,-76.570323,-9226.723946
1431.777905,2354.537438,1780.260014,-9035.298138
1431.780470,-1359.123237,-1588.834206,-9341.579430
1431.783036,-229.710970,2928.814862,-8939.585234
1431.785601,-2641.676150,-363.709035,-8920.442653
1431.788166,210.568389,2871.387120,-9092.725880
1431.790732,-114.855485,-344.566454,-9379.864592
1431.793297,535.992262,-1320.838075,-9245.866526
1431.795863,1205.982590,1244.267752,-8977.870395
1431.798428,-1339.980656,-1914.258080,-9150.153622
1431.800993,-1895.115499,1244.267752,-8729.016845
1431.803559,-5513.063270,-3139.383251,-8786.444587
1431.806124,-2335.394858,1416.550979,-8805.587168
1431.808690,-3617.947771,-1186.840010,-9379.864592
1431.811255,478.564520,535.992262,-9150.153622
1431.813820,153.140646,-842.273555,-9016.155557
1431.816386,459.421939,-1837.687757,-8997.012976
1431.818951,-57.427742,-957.129040,-8843.872330
1431.821517,-2373.680019,-1110.269686,-8977.870395
1431.824082,-2411.965181,-210.568389,-8767.302006
1431.826647,-1627.119368,-1033.699363,-8997.012976
1431.829213,823.130974,1167.697429,-9073.583299
1431.831778,-3847.658741,-1263.410333,-9226.723946
1431.834344,-708.275490,-1493.121302,-8901.300072
1431.836909,363.709035,669.990328,-8614.161360
1431.839474,-2450.250342,-1435.693560,-9131.011042
1431.842040,-3369.094221,153.140646,-9092.725880
1431.844605,-2852.244539,-2009.970984,-8997.012976
1431.847170,-382.851616,899.701298,-8786.444587
1431.849736,-1684.547110,-842.273555,-9035.298138
1431.852301,363.709035,172.283227,-9169.296203
1431.854872,-535.992262,-1320.838075,-8977.870395
1431.857443,-1531.406464,-1741.974853,-8767.302006
1431.860013,-2258.824534,-535.992262,-8786.444587
1431.862584,-2239.681954,1263.410333,-8997.012976
1431.865155,-727.418070,918.843878,-9150.153622
1431.867725,-823.130974,1397.408398,-9131.011042
1431.870296,1588.834206,-1129.412267,-9379.864592
1431.872867,3101.098090,1646.261949,-9360.722011
1431.875437,880.558717,-306.281293,-9169.296203
1431.878008,153.140646,1646.261949,-8748.159426
1431.880579,-1990.828403,133.998066,-8882.157491
1431.883149,-2201.396792,325.423874,-9073.583299
1431.885720,-1416.550979,727.418070,-9111.868461
1431.888291,-325.423874,1359.123237,-9111.868461
1431.890862,937.986459,880.558717,-9437.292334
1431.893432,1971.685822,1588.834206,-9226.723946
1431.896003,-708.275490,-344.566454,-8901.300072
1431.898574,-210.568389,-210.568389,-8652.446522
1431.901144,229.710970,76.570323,-9054.440718
1431.903715,-746.560651,1818.545176,-9590.432981
1431.906286,-267.996131,1990.828403,-9245.866526
1431.908856,38.285162,593.420005,-9054.440718
1431.911427,880.558717,153.140646,-9131.011042
1431.913998,1761.117434,210.568389,-9341.579430
1431.916568,-287.138712,153.140646,-9073.583299
1431.919139,-401.994197,1722.832272,-8863.014910
1431.921710,-1818.545176,803.988394,-8939.585234
1431.924280,-440.279358,1684.547110,-9207.581365
1431.926851,133.998066,38.285162,-9226.723946
1431.929422,-727.418070,-2009.970984,-9322.436850
1431.931992,1990.828403,1148.554848,-9073.583299
1431.934563,-1244.267752,-1512.263883,-8882.157491
1431.937134,-1550.549045,535.992262,-8843.872330
1431.939705,-5206.781978,-2392.822600,-8805.587168
1431.942275,-2679.961312,267.996131,-8882.157491
1431.944846,-2277.967115,-306.281293,-9207.581365
1431.947417,-210.568389,306.281293,-9092.725880
1431.949987,363.709035,-880.558717,-8939.585234
1431.952558,-172.283227,-1531.406464,-9016.155557
1431.955129,-172.283227,-784.845813,-8997.012976
1431.957699,-2297.109696,-555.134843,-8882.157491
1431.960270,-3541.377448,1320.838075,-9016.155557
1431.962841,-3081.955509,-1607.976787,-8843.872330
1431.965411,2622.533570,382.851616,-9150.153622
1431.967982,1091.127106,995.414202,-8882.157491
1431.970553,-4632.504554,-1454.836141,-9016.155557
1431.973123,-1397.408398,918.843878,-8786.444587
1431.975694,-2526.820666,-1971.685822,-9073.583299
1431.978240,-842.273555,229.710970,-8843.872330
1431.980786,-3809.373579,-1378.265818,-9035.298138
1431.983332,-1799.402595,-880.558717,-9054.440718
1431.985877,-76.570323,1397.408398,-9284.151688
1431.988423,-210.568389,-1780.260014,-9016.155557
1431.990969,-937.986459,-880.558717,-8805.587168
1431.993515,-2603.390989,-1550.549045,-8920.442653
1431.996061,-1875.972918,899.701298,-8920.442653
1431.998606,-1799.402595,2220.539373,-9265.009107
1432.001152,-1263.410333,153.140646,-9169.296203
1432.003698,2067.398726,1167.697429,-9111.868461
1432.006244,1952.543242,95.712904,-9360.722011
1432.008790,2182.254211,-114.855485,-9188.438784
1432.011336,746.560651,937.986459,-8824.729749
1432.013881,-1014.556782,287.138712,-9016.155557
1432.016427,-2029.113565,650.847747,-9092.725880
1432.018973,-2143.969050,210.568389,-9111.868461
1432.021519,-784.845813,1359.123237,-9016.155557
1432.024065,267.996131,1818.545176,-9475.577496
1432.026611,1282.552914,1263.410333,-9360.722011
1432.029156,1225.125171,-1263.410333,-9131.011042
1432.031702,-459.421939,363.709035,-8614.161360
1432.034248,-669.990328,708.275490,-9054.440718
1432.036794,-1665.404530,1205.982590,-9475.577496
1432.039340,708.275490,1665.404530,-9284.151688
1432.041885,497.707101,38.285162,-9035.298138
1432.044431,708.275490,-344.566454,-9016.155557
1432.046977,1339.980656,1091.127106,-9322.436850
1432.049523,-497.707101,-459.421939,-9207.581365
1432.052069,76.570323,1895.115499,-8920.442653
1432.054615,-1531.406464,708.275490,-8939.585234
1432.057160,0.000000,1684.547110,-9245.866526
1432.059714,76.570323,133.998066,-9341.579430
1432.062268,-727.418070,-1320.838075,-9169.296203
1432.064822,1339.980656,918.843878,-9111.868461
1432.067376,-1627.119368,-1646.261949,-8882.157491
1432.069930,-1512.263883,57.427742,-8824.729749
1432.072484,-4843.072942,-1607.976787,-8805.587168
1432.075038,-3081.955509,287.138712,-9035.298138
1432.077591,-1454.836141,-497.707101,-9303.294269
1432.080145,-650.847747,325.423874,-9092.725880
1432.082699,-76.570323,-1244.267752,-8901.300072
1432.085253,95.712904,-976.271621,-8997.012976
1432.087807,-957.129040,-1646.261949,-8977.870395
1432.090361,-2431.107762,114.855485,-9035.298138
1432.092915,-2565.105827,2392.822600,-8863.014910
1432.095469,-5570.491013,-1263.410333,-9226.723946
1432.098023,1473.978722,-2756.531635,-9035.298138
1432.100576,1990.828403,497.707101,-8920.442653
1432.103130,-2239.681954,-1856.830338,-8709.874264
1432.105684,-1952.543242,-153.140646,-8786.444587
1432.108238,-3062.812928,133.998066,-9092.725880
1432.110792,-2603.390989,-880.558717,-9169.296203
1432.113346,-727.418070,95.712904,-8767.302006
1432.115900,-2392.822600,-1397.408398,-9150.153622
1432.118454,57.427742,1244.267752,-9284.151688
1432.121008,-918.843878,-1569.691626,-9092.725880
1432.123561,-1799.402595,-1531.406464,-8709.874264
1432.126115,-2411.965181,-306.281293,-8824.729749
1432.128669,-1129.412267,1646.261949,-9073.583299
1432.131223,-401.994197,765.703232,-9131.011042
1432.133777,114.855485,1588.834206,-9207.581365
1432.136331,1110.269686,-976.271621,-9360.722011
1432.138885,2316.252277,1167.697429,-9207.581365
1432.141439,765.703232,823.130974,-9035.298138
1432.143992,-459.421939,784.845813,-8901.300072
1432.146546,-1550.549045,459.421939,-9131.011042
1432.149100,-1780.260014,114.855485,-9207.581365
1432.151654,-976.271621,1129.412267,-8939.585234
1432.154208,-382.851616,440.279358,-9150.153622
1432.156762,1914.258080,497.707101,-9226.723946
1432.159316,3196.810994,19.142581,-9322.436850
1432.161877,-1359.123237,-344.566454,-8863.014910
1432.164438,-1435.693560,1550.549045,-9131.011042
1432.166998,-842.273555,497.707101,-9226.723946
1432.169559,1110.269686,937.986459,-9418.149754
1432.172120,612.562586,1225.125171,-9035.298138
1432.174681,612.562586,191.425808,-8920.442653
1432.177241,1205.982590,57.427742,-9035.298138
1432.179802,-172.283227,-440.279358,-9245.866526
1432.182363,382.851616,1263.410333,-8920.442653
1432.184923,-1435.693560,1473.978722,-8939.585234
1432.187484,-382.851616,1512.263883,-9207.581365
1432.190045,-19.142581,-172.283227,-9265.009107
1432.192605,-267.996131,-1569.691626,-9169.296203
1432.195166,669.990328,957.129040,-9092.725880
1432.197727,-1454.836141,-1378.265818,-9035.298138
1432.200288,-1512.263883,-19.142581,-8843.872330
1432.202848,-4211.367776,-1818.545176,-8843.872330
1432.205409,-3311.666478,-38.285162,-9226.723946
1432.207970,-1473.978722,-746.560651,-9207.581365
1432.210530,-593.420005,574.277424,-8939.585234
1432.213091,-76.570323,-803.988394,-8958.727814
1432.215652,-95.712904,-918.843878,-9016.155557
1432.218213,-1627.119368,-976.271621,-9303.294269
1432.220773,-555.134843,-1607.976787,-8671.589102
1432.223334,-823.130974,210.568389,-8805.587168
1432.225895,-4919.643266,995.414202,-9150.153622
1432.228455,-1378.265818,-2029.113565,-9226.723946
1432.231016,1914.258080,306.281293,-8958.727814
1432.233577,-2105.683888,-1550.549045,-8633.303941
1432.236137,-2392.822600,-191.425808,-8843.872330
1432.238698,-2469.392923,-363.709035,-9054.440718
1432.241259,-2029.113565,-746.560651,-9092.725880
1432.243820,-1148.554848,-38.285162,-8863.014910
1432.246380,-1627.119368,-1052.841944,-9150.153622
1432.248941,-210.568389,593.420005,-9150.153622
1432.251502,-1627.119368,-2182.254211,-9016.155557
1432.254062,-1550.549045,-1071.984525,-8805.587168
1432.256623,-2105.683888,1014.556782,-9016.155557
1432.259184,-1359.123237,1339.980656,-9284.151688
1432.261744,133.998066,1435.693560,-9111.868461
1432.264284,1627.119368,95.712904,-9226.723946
1432.266824,1473.978722,-248.853550,-9207.581365
1432.269364,1378.265818,267.996131,-9092.725880
1432.271903,880.558717,669.990328,-8863.014910
1432.274443,-574.277424,880.558717,-8958.727814
1432.276983,-1129.412267,382.851616,-9245.866526
1432.279523,-1780.260014,516.849682,-9188.438784
1432.282062,-861.416136,803.988394,-8997.012976
1432.284602,555.134843,650.847747,-9054.440718
1432.287142,1856.830338,1799.402595,-9379.864592
1432.289681,287.138712,-555.134843,-9322.436850
1432.292221,-1052.841944,-229.710970,-8729.016845
1432.294761,459.421939,1148.554848,-9322.436850
1432.297301,1148.554848,1627.119368,-9360.722011
1432.299840,516.849682,172.283227,-9169.296203
1432.302380,497.707101,574.277424,-9016.155557
1432.304920,976.271621,-191.425808,-9054.440718
1432.307459,1263.410333,76.570323,-9092.725880
1432.309999,-344.566454,1033.699363,-9054.440718
1432.312539,-593.420005,1895.115499,-8977.870395
1432.315079,-880.558717,1531.406464,-9207.581365
1432.317618,76.570323,-210.568389,-9379.864592
1432.320158,-76.570323,-2124.826469,-9131.011042
1432.322698,535.992262,1493.121302,-9054.440718
1432.325238,-1627.119368,-1607.976787,-9016.155557
1432.327777,-784.845813,1627.119368,-8824.729749
1432.330317,-4077.369710,-3158.525832,-8901.300072
1432.332857,-1703.689691,-153.140646,-8958.727814
1432.335396,-1473.978722,-823.130974,-9188.438784
1432.337936,-880.558717,899.701298,-9035.298138
1432.340476,-95.712904,-689.132909,-8939.585234
1432.343016,-555.134843,-593.420005,-8977.870395
1432.345555,-746.560651,-1799.402595,-9016.155557
1432.348095,-650.847747,-746.560651,-8805.587168
1432.350635,-1493.121302,0.000000,-8843.872330
1432.353175,-1799.402595,1856.830338,-8939.585234
1432.355714,-2565.105827,-2718.246474,-9360.722011
1432.358254,995.414202,382.851616,-9016.155557
1432.360794,-1741.974853,-1971.685822,-8709.874264
1432.363333,-1569.691626,210.568389,-8843.872330
1432.365882,-3407.379382,-861.416136,-9169.296203
1432.368431,-1205.982590,-172.283227,-9226.723946
1432.370980,-1225.125171,-287.138712,-8939.585234
1432.373529,-1473.978722,-1761.117434,-8997.012976
1432.376077,574.277424,516.849682,-9092.725880
1432.378626,-2928.814862,-2431.107762,-9054.440718
1432.381175,-1741.974853,-440.279358,-8709.874264
1432.383724,-2201.396792,708.275490,-8939.585234
1432.386273,-287.138712,2277.967115,-9245.866526
1432.388821,-1378.265818,191.425808,-9188.438784
1432.391370,1588.834206,-1416.550979,-9418.149754
1432.393919,2335.394858,1607.976787,-9188.438784
1432.396468,-344.566454,325.423874,-9073.583299
1432.399017,593.420005,918.843878,-8748.159426
1432.401565,-1244.267752,-612.562586,-9054.440718
1432.404114,-306.281293,1091.127106,-9188.438784
1432.406663,-2354.537438,95.712904,-9265.009107
1432.409212,0.000000,1186.840010,-9035.298138
1432.411761,-267.996131,1282.552914,-9303.294269
1432.414309,1569.691626,-1569.691626,-9111.868461
1432.416858,5972.485210,2450.250342,-8748.159426
1432.419407,-6661.618118,-727.418070,-9188.438784
1432.421956,1263.410333,1186.840010,-8882.157491
1432.424505,957.129040,1627.119368,-9341.579430
1432.427053,612.562586,-880.558717,-9360.722011
1432.429602,3062.812928,3713.660675,-8843.872330
1432.432151,-2526.820666,-2431.107762,-9265.009107
1432.434700,1933.400661,2813.959378,-9054.440718
1432.437249,-2086.541307,-19.142581,-9054.440718
1432.439797,708.275490,2450.250342,-9150.153622
1432.442346,-459.421939,478.564520,-9188.438784
1432.444895,937.986459,-1301.695494,-9207.581365
1432.447444,-669.990328,76.570323,-9073.583299
1432.449993,-1454.836141,-1416.550979,-8977.870395
1432.452541,-957.129040,880.558717,-8805.587168
1432.455090,-3598.805190,-2220.539373,-8786.444587
1432.457639,-1818.545176,287.138712,-8901.300072
1432.460188,-3177.668413,-1473.978722,-9169.296203
1432.462737,-784.845813,382.851616,-9150.153622
1432.465285,-689.132909,306.281293,-9054.440718
1432.467842,-803.988394,-1110.269686,-8997.012976
1432.470398,-325.423874,-995.414202,-8920.442653
1432.472955,-1186.840010,-2048.256146,-8805.587168
1432.475511,-325.423874,57.427742,-8786.444587
1432.478068,-4211.367776,1512.263883,-9054.440718
1432.480624,-1531.406464,-2354.537438,-9188.438784
1432.483181,1378.265818,2182.254211,-8901.300072
1432.485737,-4823.930362,-4823.930362,-9092.725880
1432.488294,-191.425808,2641.676150,-8690.731683
1432.490850,-4709.074877,-1607.976787,-9207.581365
1432.493407,-861.416136,153.140646,-9207.581365
1432.495963,-1761.117434,-19.142581,-8824.729749
1432.498520,-1550.549045,-2182.254211,-9092.725880
1432.501076,267.996131,1071.984525,-9073.583299
1432.503633,-2909.672282,-3790.230998,-9092.725880
1432.506189,-1435.693560,1110.269686,-8767.302006
1432.508746,-2105.683888,746.560651,-8958.727814
1432.511302,708.275490,1952.543242,-9207.581365
1432.513859,-1454.836141,555.134843,-9207.581365
1432.516415,2392.822600,-325.423874,-9322.436850
1432.518972,1646.261949,1435.693560,-9054.440718
1432.521528,995.414202,76.570323,-9035.298138
1432.524085,306.281293,1244.267752,-8786.444587
1432.526641,-1569.691626,-842.273555,-9111.868461
1432.529198,114.855485,1435.693560,-9245.866526
1432.531754,-2316.252277,574.277424,-9322.436850
1432.534311,95.712904,2048.256146,-9188.438784
1432.536867,191.425808,1837.687757,-9111.868461
1432.539424,-1550.549045,-535.992262,-9437.292334
1432.541980,2105.683888,2890.529701,-9188.438784
1432.544537,-3311.666478,191.425808,-9016.155557
1432.547093,-1282.552914,76.570323,-9533.005238
1432.549650,2086.541307,2775.674216,-9207.581365
1432.552206,-344.566454,-2009.970984,-9265.009107
1432.554763,2029.113565,2105.683888,-8882.157491
1432.557319,-1225.125171,-1110.269686,-9169.296203
1432.559876,1167.697429,1493.121302,-9131.011042
1432.562432,-1186.840010,1091.127106,-9035.298138
1432.564989,-153.140646,1301.695494,-9169.296203
1432.567545,421.136778,1148.554848,-9111.868461
1432.570108,-823.130974,-2488.535504,-9150.153622
1432.572670,1167.697429,1646.261949,-8863.014910
1432.575233,-2258.824534,-1875.972918,-8977.870395
1432.577795,-1205.982590,1569.691626,-8843.872330
1432.580357,-4670.789715,-3005.385186,-8882.157491
1432.582920,-1110.269686,344.566454,-8977.870395
1432.585482,-1550.549045,-765.703232,-9169.296203
1432.588045,-535.992262,421.136778,-9054.440718
1432.590607,-306.281293,-172.283227,-8863.014910
1432.593169,-861.416136,-937.986459,-9073.583299
1432.595732,-899.701298,-937.986459,-8977.870395
1432.598294,-2335.394858,-191.425808,-9054.440718
1432.600857,-3311.666478,-114.855485,-8920.442653
1432.603419,-899.701298,478.564520,-9092.725880
1432.605982,-861.416136,957.129040,-9303.294269
1432.608544,-1263.410333,-2871.387120,-8652.446522
1432.611106,-1856.830338,-382.851616,-8690.731683
1432.613669,-3273.381317,-2009.970984,-8901.300072
1432.616231,-1091.127106,1799.402595,-9035.298138
1432.618794,-2622.533570,-1722.832272,-9035.298138
1432.621356,-765.703232,765.703232,-8882.157491
1432.623919,-861.416136,-1339.980656,-9054.440718
1432.626481,-1895.115499,-2258.824534,-9131.011042
1432.629043,-1627.119368,248.853550,-8748.159426
1432.631606,-2086.541307,937.986459,-9035.298138
1432.634168,-918.843878,1952.543242,-9111.868461
1432.636731,-918.843878,0.000000,-9303.294269
1432.639293,2009.970984,421.136778,-9284.151688
1432.641855,937.986459,-153.140646,-9245.866526
1432.644418,1263.410333,574.277424,-9054.440718
1432.646980,172.283227,1435.693560,-8805.587168
1432.649543,-957.129040,-210.568389,-9016.155557
1432.652105,-1052.841944,669.990328,-9188.438784
1432.654668,-1971.685822,-459.421939,-9360.722011
1432.657230,248.853550,2737.389054,-9111.868461
1432.659792,-440.279358,918.843878,-9092.725880
1432.662355,1722.832272,1186.840010,-9207.581365
1432.664917,-1397.408398,880.558717,-9226.723946
1432.667480,-1665.404530,899.701298,-9054.440718
1432.670042,1799.402595,861.416136,-8863.014910
1432.672610,-95.712904,-746.560651,-9552.147819
1432.675177,976.271621,1914.258080,-9188.438784
1432.677745,0.000000,-899.701298,-9035.298138
1432.680312,1569.691626,957.129040,-8767.302006
1432.682880,-95.712904,478.564520,-9035.298138
1432.685447,593.420005,1741.974853,-9150.153622
1432.688015,-363.709035,1512.263883,-9092.725880
1432.690583,421.136778,95.712904,-9303.294269
1432.693150,-516.849682,-1856.830338,-9111.868461
1432.695718,727.418070,784.845813,-9035.298138
1432.698285,-1952.543242,-1301.695494,-8920.442653
1432.700853,-2373.680019,248.853550,-8767.302006
1432.703420,-4115.654872,-1684.547110,-8863.014910
1432.705988,-2641.676150,-746.560651,-9226.723946
1432.708555,-1263.410333,-344.566454,-9284.151688
1432.711123,-306.281293,344.566454,-8977.870395
1432.713691,38.285162,-440.279358,-8920.442653
1432.716258,-650.847747,-1263.410333,-8939.585234
1432.718826,-1091.127106,-2029.113565,-8939.585234
1432.721393,-2048.256146,-2086.541307,-8843.872330
1432.723961,-516.849682,2258.824534,-8824.729749
1432.726528,-1493.121302,76.570323,-9303.294269
1432.729096,-2354.537438,-248.853550,-9322.436850
1432.731663,-1722.832272,-1895.115499,-8901.300072
1432.734231,-1225.125171,-535.992262,-8652.446522
1432.736798,-2928.814862,-823.130974,-8958.727814
1432.739366,-2469.392923,-401.994197,-8977.870395
1432.741934,-2565.105827,-133.998066,-9016.155557
1432.744501,-650.847747,-650.847747,-8939.585234
1432.747069,-574.277424,-2067.398726,-9035.298138
1432.749636,-1703.689691,-1033.699363,-9035.298138
1432.752204,-2335.394858,-535.992262,-8863.014910
1432.754771,-1627.119368,1493.121302,-8863.014910
1432.757339,38.285162,1684.547110,-9226.723946
1432.759906,1167.697429,1512.263883,-9245.866526
1432.762474,1569.691626,-1244.267752,-9360.722011
1432.765042,1895.115499,1512.263883,-9341.579430
1432.767609,38.285162,1225.125171,-9035.298138
1432.770177,-516.849682,650.847747,-8709.874264
1432.772744,-1110.269686,76.570323,-9111.868461
1432.775316,-957.129040,-95.712904,-9265.009107
1432.777889,-1014.556782,555.134843,-9169.296203
1432.780461,-114.855485,976.271621,-9054.440718
1432.783033,114.855485,1952.543242,-9054.440718
1432.785605,-440.279358,-1033.699363,-9360.722011
1432.788177,1397.408398,1607.976787,-8805.587168
1432.790749,-2009.970984,-38.285162,-8920.442653
1432.793321,459.421939,1244.267752,-9475.577496
1432.795894,382.851616,1454.836141,-9341.579430
1432.798466,-267.996131,-1512.263883,-9207.581365
1432.801038,1646.261949,1722.832272,-8805.587168
1432.803610,-1186.840010,-918.843878,-9016.155557
1432.806182,363.709035,2890.529701,-9226.723946
1432.808754,-593.420005,727.418070,-9226.723946
1432.811327,1339.980656,1129.412267,-9265.009107
1432.813899,-478.564520,-1971.685822,-9207.581365
1432.816471,306.281293,708.275490,-8863.014910
1432.819043,-2316.252277,-1244.267752,-8920.442653
1432.821615,-1780.260014,1205.982590,-8824.729749
1432.824187,-4345.365842,-2641.676150,-8824.729749
1432.826760,-1550.549045,-382.851616,-8939.585234
1432.829332,-1473.978722,-842.273555,-9399.007173
1432.831904,-1110.269686,267.996131,-9188.438784
1432.834476,191.425808,-210.568389,-8920.442653
1432.837048,-1014.556782,-1052.841944,-8997.012976
1432.839620,-803.988394,-401.994197,-9035.298138
1432.842193,-3617.947771,-555.134843,-9016.155557
1432.844765,-631.705166,-1799.402595,-8824.729749
1432.847337,-1512.263883,1186.840010,-9188.438784
1432.849909,-401.994197,-2852.244539,-9226.723946
1432.852481,325.423874,1091.127106,-8633.303941
1432.855053,-3962.514226,-4134.797453,-8748.159426
1432.857625,-153.140646,1837.687757,-8805.587168
1432.860198,-3598.805190,-1799.402595,-9092.725880
1432.862770,-976.271621,363.709035,-9092.725880
1432.865342,-1837.687757,-421.136778,-8882.157491
1432.867914,-784.845813,-2986.242605,-8997.012976
1432.870486,-1703.689691,114.855485,-8863.014910
1432.873058,-2277.967115,-1244.267752,-8977.870395
1432.875631,-1473.978722,2239.681954,-8920.442653
1432.878206,-803.988394,-440.279358,-9284.151688
1432.880781,2029.113565,1799.402595,-9265.009107
1432.883357,650.847747,-957.129040,-9303.294269
1432.885932,2335.394858,1282.552914,-9169.296203
1432.888508,-363.709035,880.558717,-8920.442653
1432.891083,38.285162,1799.402595,-8824.729749
1432.893659,-2201.396792,-516.849682,-9092.725880
1432.896234,-1454.836141,-574.277424,-9341.579430
1432.898809,133.998066,344.566454,-8920.442653
1432.901385,-689.132909,708.275490,-9303.294269
1432.903960,3177.668413,1320.838075,-8920.442653
1432.906536,516.849682,-1071.984525,-8958.727814
1432.909111,-210.568389,-382.851616,-8824.729749
1432.911687,-1282.552914,2163.111630,-9418.149754
1432.914262,-172.283227,19.142581,-9513.862658
1432.916837,2067.398726,2354.537438,-9265.009107
1432.919413,-38.285162,-1167.697429,-8997.012976
1432.921988,765.703232,765.703232,-9016.155557
1432.924564,-1359.123237,593.420005,-9169.296203
1432.927139,535.992262,2182.254211,-9265.009107
1432.929715,-38.285162,1339.980656,-9111.868461
1432.932290,210.568389,-708.275490,-9284.151688
1432.934865,-153.140646,-38.285162,-9054.440718
1432.937441,-478.564520,-689.132909,-9016.155557
1432.940016,-2105.683888,-57.427742,-8824.729749
1432.942592,-2603.390989,-650.847747,-8805.587168
1432.945167,-3235.096155,-631.705166,-8863.014910
1432.947742,-2679.961312,-1263.410333,-9207.581365
1432.950318,-401.994197,-784.845813,-9226.723946
1432.952893,114.855485,421.136778,-8863.014910
1432.955469,-459.421939,-1014.556782,-8824.729749
1432.958044,-842.273555,-1531.406464,-8767.302006
1432.960620,-2143.969050,-918.843878,-9150.153622
1432.963195,-1282.552914,-803.988394,-8786.444587
1432.965770,-229.710970,803.988394,-8863.014910
1432.968346,-2277.967115,267.996131,-9303.294269
1432.970921,-1799.402595,-1301.695494,-8997.012976
1432.973497,-1837.687757,229.710970,-8575.876198
1432.976072,-2565.105827,-1569.691626,-8901.300072
1432.978648,-1416.550979,861.416136,-8958.727814
1432.981226,-3139.383251,-1301.695494,-9360.722011
1432.983804,-976.271621,133.998066,-8977.870395
1432.986382,-880.558717,-1761.117434,-8882.157491
1432.988960,-1301.695494,-1856.830338,-9016.155557
1432.991538,-1684.547110,574.277424,-8882.157491
1432.994117,-1052.841944,1607.976787,-9016.155557
1432.996695,382.851616,1186.840010,-9035.298138
1432.999273,114.855485,918.843878,-9341.579430
1433.001851,976.271621,-842.273555,-9284.151688
1433.004429,2258.824534,1550.549045,-9226.723946
1433.007007,229.710970,823.130974,-9111.868461
1433.009585,0.000000,1990.828403,-8882.157491
1433.012164,-2335.394858,-19.142581,-9150.153622
1433.014742,-976.271621,287.138712,-9322.436850
1433.017320,-708.275490,880.558717,-9150.153622
1433.019898,-669.990328,1569.691626,-9437.292334
1433.022476,-1588.834206,421.136778,-9150.153622
1433.025054,5474.778109,1646.261949,-9054.440718
1433.027633,-4326.223261,1033.699363,-9265.009107
1433.030211,-3943.371645,-1244.267752,-9456.434915
1433.032789,2488.535504,4134.797453,-9150.153622
1433.035367,0.000000,-2565.105827,-9360.722011
1433.037945,3043.670347,2086.541307,-8882.157491
1433.040523,-2622.533570,-535.992262,-9092.725880
1433.043102,210.568389,1722.832272,-9092.725880
1433.045680,-191.425808,1186.840010,-9150.153622
1433.048258,1454.836141,1033.699363,-9284.151688
1433.050836,459.421939,-267.996131,-9073.583299
1433.053414,-1167.697429,-1473.978722,-9092.725880
1433.055992,172.283227,-57.427742,-8901.300072
1433.058571,-2373.680019,0.000000,-8824.729749
1433.061149,-2201.396792,-1359.123237,-8786.444587
1433.063729,-3196.810994,-76.570323,-8863.014910
1433.066310,-2488.535504,-1454.836141,-9226.723946
1433.068891,-401.994197,440.279358,-9169.296203
1433.071472,-306.281293,-382.851616,-8977.870395
1433.074052,382.851616,-574.277424,-8786.444587
1433.076633,-1703.689691,-1301.695494,-9016.155557
1433.079214,-497.707101,-1339.980656,-8882.157491
1433.081795,-3637.090352,823.130974,-8997.012976
1433.084375,-2603.390989,-650.847747,-9265.009107
1433.086956,-57.427742,1627.119368,-9169.296203
1433.089537,-3598.805190,-3311.666478,-9073.583299
1433.092118,-765.703232,1244.267752,-8575.876198
1433.094698,-4134.797453,-1320.838075,-8958.727814
1433.097279,-1091.127106,574.277424,-9169.296203
1433.099860,-2526.820666,-57.427742,-9111.868461
1433.102441,-880.558717,-689.132909,-8977.870395
1433.105021,-2488.535504,-2622.533570,-8901.300072
1433.107602,-918.843878,-1263.410333,-9016.155557
1433.110183,-1052.841944,1933.400661,-8939.585234
1433.112764,-899.701298,2392.822600,-9092.725880
1433.115344,-746.560651,57.427742,-9245.866526
1433.117925,2163.111630,631.705166,-9265.009107
1433.120506,1684.547110,-421.136778,-9169.296203
1433.123087,842.273555,1129.412267,-9131.011042
1433.125667,363.709035,1550.549045,-9035.298138
1433.128248,-2086.541307,325.423874,-8977.870395
1433.130829,-861.416136,555.134843,-9169.296203
1433.133410,-1493.121302,-459.421939,-9207.581365
1433.135991,-306.281293,2469.392923,-9322.436850
1433.138571,-1359.123237,937.986459,-9284.151688
1433.141152,2852.244539,-344.566454,-9073.583299
1433.143733,2928.814862,267.996131,-8690.731683
1433.146314,-2488.535504,1454.836141,-8997.012976
1433.148894,478.564520,1129.412267,-9322.436850
1433.151475,555.134843,1435.693560,-9571.290400
1433.154056,727.418070,-631.705166,-9188.438784
1433.156637,1397.408398,1569.691626,-8748.159426
1433.159217,-1416.550979,-306.281293,-9073.583299
1433.161798,784.845813,2297.109696,-9226.723946
1433.164379,-267.996131,287.138712,-9111.868461
1433.166963,459.421939,-631.705166,-9341.579430
1433.169545,-1416.550979,-593.420005,-9207.581365
1433.172128,765.703232,-497.707101,-8997.012976
1433.174710,-2277.967115,-401.994197,-8709.874264
1433.177292,-2431.107762,-995.414202,-8786.444587
1433.179874,-3751.945837,-421.136778,-8958.727814
1433.182456,-2813.959378,-1416.550979,-9150.153622
1433.185038,-229.710970,-440.279358,-9207.581365
1433.187621,-114.855485,-497.707101,-8958.727814
1433.190203,0.000000,-382.851616,-8863.014910
1433.192785,-1129.412267,-2297.109696,-8824.729749
1433.195367,-1167.697429,-2067.398726,-9035.298138
1433.197949,1263.410333,1071.984525,-8767.302006
1433.200531,-7197.610381,-612.562586,-9245.866526
1433.203114,-76.570323,-2373.680019,-9322.436850
1433.205696,1933.400661,1818.545176,-8920.442653
1433.208278,-4039.084549,-4211.367776,-8786.444587
1433.210860,-784.845813,1799.402595,-8633.303941
1433.213442,-4517.649069,-2258.824534,-9169.296203
1433.216024,-76.570323,478.564520,-9092.725880
1433.218606,-1263.410333,57.427742,-8901.300072
1433.221189,-3158.525832,-3483.949706,-9016.155557
1433.223771,-1914.258080,1129.412267,-8824.729749
1433.226353,-1722.832272,-229.710970,-9111.868461
1433.228935,210.568389,2488.535504,-9188.438784
1433.231517,-1665.404530,38.285162,-9322.436850
1433.234099,2699.103893,631.705166,-9245.866526
1433.236682,1933.400661,-210.568389,-9188.438784
1433.239264,1454.836141,1052.841944,-9073.583299
1433.241846,-153.140646,1684.547110,-8901.300072
1433.244428,-1684.547110,478.564520,-9054.440718
1433.247010,-842.273555,555.134843,-9188.438784
1433.249592,-1186.840010,612.562586,-9341.579430
1433.252175,784.845813,-114.855485,-8939.585234
1433.254757,1665.404530,899.701298,-9092.725880
1433.257339,-899.701298,153.140646,-9226.723946
1433.259921,267.996131,1378.265818,-8901.300072
1433.262503,-1301.695494,957.129040,-9111.868461
1433.265085,325.423874,287.138712,-9379.864592
1433.267668,1856.830338,2699.103893,-9322.436850
1433.270251,-459.421939,-1282.552914,-9054.440718
1433.272834,1569.691626,1167.697429,-8805.587168
1433.275417,-1167.697429,114.855485,-9092.725880
1433.278001,1071.984525,3024.527766,-9284.151688
1433.280584,114.855485,459.421939,-9092.725880
1433.283167,459.421939,-1282.552914,-9111.868461
1433.285750,-401.994197,1186.840010,-9016.155557
1433.288334,-1607.976787,-2258.824534,-8882.157491
1433.290917,-1282.552914,1397.408398,-8671.589102
1433.293500,-4077.369710,-2909.672282,-8786.444587
1433.296083,-1033.699363,727.418070,-8882.157491
1433.298667,-3158.525832,-2297.109696,-9265.009107
1433.301250,-344.566454,861.416136,-9188.438784
1433.303833,-803.988394,19.142581,-8863.014910
1433.306416,-401.994197,-516.849682,-9035.298138
1433.309000,-306.281293,-2411.965181,-8633.303941
1433.311583,-267.996131,-1244.267752,-8882.157491
1433.314166,-2718.246474,1454.836141,-9073.583299
1433.316749,-4211.367776,-401.994197,-9571.290400
1433.319333,650.847747,-1071.984525,-8939.585234
1433.321916,-2220.539373,-1378.265818,-8958.727814
1433.324499,-2297.109696,-1914.258080,-8633.303941
1433.327082,-1933.400661,1205.982590,-9016.155557
1433.329666,-3311.666478,-1512.263883,-9360.722011
1433.332249,-191.425808,708.275490,-9035.298138
1433.334832,-2163.111630,-3713.660675,-8824.729749
1433.337416,-478.564520,842.273555,-8882.157491
1433.339999,-2967.100024,-1416.550979,-8863.014910
1433.342582,-306.281293,2105.683888,-9150.153622
1433.345165,-421.136778,287.138712,-9111.868461
1433.347749,1646.261949,1301.695494,-9418.149754
1433.350332,1033.699363,-555.134843,-9207.581365
1433.352915,1703.689691,1282.552914,-9226.723946
1433.355498,-210.568389,669.990328,-9111.868461
1433.358082,-153.140646,1856.830338,-8843.872330
1433.360665,-1799.402595,-229.710970,-9111.868461
1433.363248,-1205.982590,478.564520,-9322.436850
1433.365831,-57.427742,842.273555,-9073.583299
1433.368415,1397.408398,-2392.822600,-8920.442653
1433.370998,2909.672282,3751.945837,-9169.296203
1433.373582,-4613.361973,-1875.972918,-9131.011042
1433.376166,3407.379382,2699.103893,-8805.587168
1433.378750,-689.132909,-689.132909,-9341.579430
1433.381335,957.129040,-1033.699363,-9513.862658
1433.383919,1454.836141,2813.959378,-8882.157491
1433.386503,-1569.691626,-1627.119368,-9035.298138
1433.389087,1359.123237,3426.521963,-8901.300072
1433.391671,-784.845813,-612.562586,-9207.581365
1433.394255,2067.398726,2029.113565,-9284.151688
1433.396840,-1129.412267,-2163.111630,-9188.438784
1433.399424,631.705166,516.849682,-9016.155557
1433.402008,-1933.400661,-1110.269686,-8843.872330
1433.404592,-1665.404530,574.277424,-8729.016845
1433.407176,-3675.375514,-2316.252277,-8824.729749
1433.409760,-2029.113565,19.142581,-8997.012976
1433.412345,-2143.969050,-1397.408398,-9226.723946
1433.414929,-669.990328,172.283227,-9073.583299
1433.417513,-287.138712,-401.994197,-8977.870395
1433.420097,-344.566454,-1435.693560,-8805.587168
1433.422681,-1722.832272,76.570323,-9169.296203
1433.425265,-3158.525832,-1244.267752,-8977.870395
1433.427850,-363.709035,191.425808,-8920.442653
1433.430434,-1033.699363,-1435.693560,-9131.011042
1433.433018,95.712904,-1129.412267,-9111.868461
1433.435602,-2220.539373,-593.420005,-8575.876198
1433.438186,-2679.961312,-1397.408398,-8805.587168
1433.440770,-1397.408398,1263.410333,-8997.012976
1433.443355,-2679.961312,-1320.838075,-9303.294269
1433.445939,-344.566454,727.418070,-8997.012976
1433.448523,-3254.238736,-3943.371645,-8882.157491
1433.451107,-440.279358,306.281293,-8786.444587
1433.453691,-2316.252277,-248.853550,-8997.012976
1433.456275,210.568389,3139.383251,-9131.011042
1433.458860,-1378.265818,306.281293,-9207.581365
1433.461444,1761.117434,344.566454,-9322.436850
1433.464028,1646.261949,-325.423874,-9207.581365
1433.466612,1205.982590,689.132909,-9150.153622
1433.469196,593.420005,1741.974853,-8882.157491
1433.471780,-1646.261949,612.562586,-8958.727814
1433.474365,-535.992262,516.849682,-9073.583299
1433.476927,-1205.982590,267.996131,-9207.581365
1433.479489,957.129040,-401.994197,-8977.870395
1433.482051,1320.838075,1397.408398,-9169.296203
1433.484614,-1416.550979,669.990328,-9169.296203
1433.487176,-1014.556782,1244.267752,-9016.155557
1433.489738,1148.554848,1282.552914,-8843.872330
1433.492300,574.277424,-1378.265818,-9609.575562
1433.494863,1397.408398,2316.252277,-9341.579430
1433.497425,-746.560651,-574.277424,-8958.727814
1433.499987,325.423874,861.416136,-8901.300072
1433.502549,689.132909,1588.834206,-9035.298138
1433.505112,976.271621,593.420005,-9265.009107
1433.507674,363.709035,516.849682,-9188.438784
1433.510236,-1244.267752,-2526.820666,-9092.725880
1433.512798,363.709035,1397.408398,-9016.155557
1433.515361,-2756.531635,-1435.693560,-8824.729749
1433.517923,-1818.545176,-995.414202,-8709.874264
1433.520485,-4153.940034,-842.273555,-9035.298138
1433.523048,-1875.972918,-1722.832272,-9150.153622
1433.525610,-842.273555,191.425808,-9169.296203
1433.528172,-631.705166,-689.132909,-8977.870395
1433.530734,153.140646,631.705166,-8843.872330
1433.533297,-1244.267752,-2316.252277,-8824.729749
1433.535859,-1741.974853,-1129.412267,-9073.583299
1433.538421,-3292.523898,-1856.830338,-9073.583299
1433.540983,-803.988394,2029.113565,-9226.723946
1433.543546,-3177.668413,-3254.238736,-9245.866526
1433.546108,497.707101,918.843878,-8748.159426
1433.548670,-3617.947771,-2737.389054,-8690.731683
1433.551232,-1339.980656,497.707101,-8709.874264
1433.553795,-3081.955509,-1148.554848,-9054.440718
1433.556357,-1014.556782,803.988394,-9226.723946
1433.558919,-1799.402595,-1741.974853,-8805.587168
1433.561481,-1512.263883,-1110.269686,-8920.442653
1433.564044,-1952.543242,344.566454,-8901.300072
1433.566606,-784.845813,2526.820666,-9169.296203
1433.569168,133.998066,57.427742,-9150.153622
1433.571730,1359.123237,1856.830338,-9245.866526
1433.574293,823.130974,-1148.554848,-9399.007173
1433.576855,1378.265818,1359.123237,-9188.438784
1433.579421,-574.277424,1014.556782,-9035.298138
1433.581987,-172.283227,1435.693560,-8901.300072
1433.584553,-1148.554848,172.283227,-9035.298138
1433.587118,-1110.269686,95.712904,-9322.436850
1433.589684,-38.285162,287.138712,-8997.012976
1433.592250,2048.256146,440.279358,-9131.011042
1433.594816,-248.853550,669.990328,-9073.583299
1433.597382,-382.851616,-363.709035,-8633.303941
1433.599948,-1129.412267,1627.119368,-9284.151688
1433.602513,497.707101,708.275490,-9475.577496
1433.605079,2201.396792,1110.269686,-9399.007173
1433.607645,287.138712,-172.283227,-9092.725880
1433.610211,440.279358,669.990328,-8882.157491
1433.612777,535.992262,1301.695494,-9054.440718
1433.615343,880.558717,1569.691626,-9303.294269
1433.617909,497.707101,-535.992262,-9150.153622
1433.620474,-1320.838075,-1359.123237,-9150.153622
1433.623040,-229.710970,-19.142581,-9016.155557
1433.625606,-2143.969050,-287.138712,-8709.874264
1433.628172,-1933.400661,-287.138712,-8767.302006
1433.630738,-4115.654872,-1339.980656,-8920.442653
1433.633304,-2124.826469,-1033.699363,-9150.153622
1433.635869,-612.562586,210.568389,-9188.438784
1433.638435,-306.281293,-631.705166,-9016.155557
1433.641001,19.142581,0.000000,-8824.729749
1433.643567,-995.414202,-2354.537438,-8767.302006
1433.646133,-344.566454,-1416.550979,-8843.872330
1433.648699,-2871.387120,1014.556782,-9054.440718
1433.651265,-2622.533570,-3235.096155,-9150.153622
1433.653830,803.988394,-1014.556782,-8977.870395
1433.656396,-2009.970984,-1397.408398,-8939.585234
1433.658962,-2220.539373,-784.845813,-8575.876198
1433.661528,-2488.535504,-363.709035,-8709.874264
1433.664094,-2411.965181,-1607.976787,-9265.009107
1433.666660,-114.855485,1129.412267,-9054.440718
1433.669225,-3196.810994,-3522.234867,-8977.870395
1433.671791,-918.843878,593.420005,-8748.159426
1433.674357,-1607.976787,1110.269686,-8901.300072
1433.676923,459.421939,1856.830338,-9245.866526
1433.679489,-669.990328,229.710970,-9322.436850
1433.682058,2354.537438,1186.840010,-9341.579430
1433.684627,650.847747,-593.420005,-9379.864592
1433.687195,1263.410333,976.271621,-9073.583299
1433.689764,-19.142581,1301.695494,-8958.727814
1433.692333,-1875.972918,746.560651,-8958.727814
1433.694902,-478.564520,191.425808,-9131.011042
1433.697471,-784.845813,-842.273555,-9131.011042
1433.700040,1263.410333,-574.277424,-8977.870395
1433.702609,1282.552914,1837.687757,-9111.868461
1433.705178,-76.570323,1569.691626,-9073.583299
1433.707747,-2029.113565,1148.554848,-8786.444587
1433.710315,-593.420005,593.420005,-9399.007173
1433.712884,1416.550979,918.843878,-9456.434915
1433.715453,287.138712,363.709035,-9437.292334
1433.718022,1244.267752,1244.267752,-9035.298138
1433.720591,-172.283227,669.990328,-8863.014910
1433.723160,708.275490,1761.117434,-9265.009107
1433.725729,76.570323,172.283227,-9245.866526
1433.728298,1014.556782,-957.129040,-9016.155557
1433.730867,-267.996131,689.132909,-9073.583299
1433.733435,-1588.834206,-1320.838075,-8863.014910
1433.736004,-1875.972918,880.558717,-8690.731683
1433.738573,-4230.510357,-2852.244539,-8709.874264
1433.741142,-1225.125171,-172.283227,-8920.442653
1433.743711,-2450.250342,-1186.840010,-9284.151688
1433.746280,38.285162,210.568389,-9245.866526
1433.748849,-823.130974,57.427742,-8920.442653
1433.751418,-899.701298,-2584.248408,-8805.587168
1433.753987,-823.130974,-2105.683888,-8824.729749
1433.756555,1627.119368,133.998066,-8824.729749
1433.759124,-5972.485210,1990.828403,-9150.153622
1433.761693,-3847.658741,-3713.660675,-9590.432981
1433.764262,3158.525832,3483.949706,-8958.727814
1433.766831,-4077.369710,-4307.080680,-8786.444587
1433.769400,-1473.978722,784.845813,-8556.733618
1433.771969,-4077.369710,-937.986459,-9226.723946
1433.774538,-1799.402595,-976.271621,-9399.007173
1433.777107,-746.560651,-823.130974,-8709.874264
1433.779675,-2086.541307,-2143.969050,-8863.014910
1433.782244,-2297.109696,1167.697429,-8920.442653
1433.784816,-478.564520,306.281293,-9092.725880
1433.787388,1684.547110,1569.691626,-9111.868461
1433.789959,1512.263883,631.705166,-9341.579430
1433.792531,1091.127106,-57.427742,-9341.579430
1433.795103,823.130974,765.703232,-9169.296203
1433.797674,248.853550,1684.547110,-9035.298138
1433.800246,-1244.267752,727.418070,-8863.014910
1433.802818,-842.273555,306.281293,-8939.585234
1433.805389,-1397.408398,-727.418070,-9226.723946
1433.807961,-306.281293,1301.695494,-9284.151688
1433.810533,1225.125171,172.283227,-9073.583299
1433.813104,823.130974,631.705166,-9016.155557
1433.815676,-1646.261949,248.853550,-9035.298138
1433.818248,1167.697429,2316.252277,-9035.298138
1433.820819,-421.136778,-1205.982590,-9609.575562
1433.823391,1741.974853,1167.697429,-9379.864592
1433.825963,689.132909,593.420005,-9092.725880
1433.828534,248.853550,1301.695494,-9054.440718
1433.831106,478.564520,2105.683888,-9073.583299
1433.833678,593.420005,-306.281293,-9207.581365
1433.836249,-248.853550,-1110.269686,-9207.581365
1433.838821,-669.990328,-57.427742,-9169.296203
1433.841393,-1588.834206,-765.703232,-8997.012976
1433.843964,-2277.967115,899.701298,-8786.444587
1433.846536,-3426.521963,-2794.816797,-8786.444587
1433.849108,-1339.980656,-248.853550,-8882.157491
1433.851680,-1952.543242,-1665.404530,-9303.294269
1433.854251,114.855485,440.279358,-9150.153622
1433.856823,-669.990328,191.425808,-9016.155557
1433.859395,-612.562586,95.712904,-9016.155557
1433.861966,-1244.267752,-229.710970,-8882.157491
1433.864538,-4383.651003,-1837.687757,-9073.583299
1433.867110,-3120.240670,-1722.832272,-9265.009107
1433.869681,1875.972918,842.273555,-9303.294269
1433.872253,-1933.400661,-1129.412267,-8843.872330
1433.874825,-2316.252277,-689.132909,-8690.731683
1433.877396,-3369.094221,-1799.402595,-8748.159426
1433.879968,-1052.841944,-267.996131,-9092.725880
1433.882540,-918.843878,631.705166,-9111.868461
1433.885111,-3139.383251,-3292.523898,-9054.440718
1433.887685,-1856.830338,516.849682,-8863.014910
1433.890258,-1914.258080,38.285162,-9073.583299
1433.892832,918.843878,2507.678085,-9150.153622
1433.895405,-1397.408398,-363.709035,-9245.866526
1433.897978,3254.238736,1320.838075,-9207.581365
1433.900552,1301.695494,-267.996131,-9188.438784
1433.903125,1473.978722,1071.984525,-9111.868461
1433.905699,-382.851616,1320.838075,-8977.870395
1433.908272,-2297.109696,-76.570323,-9016.155557
1433.910846,-95.712904,689.132909,-9111.868461
1433.913419,-1014.556782,-784.845813,-9054.440718
1433.915992,880.558717,-516.849682,-9131.011042
1433.918566,2009.970984,1588.834206,-8977.870395
1433.921139,861.416136,-1282.552914,-8997.012976
1433.923713,746.560651,2737.389054,-8920.442653
1433.926286,-133.998066,-210.568389,-9131.011042
1433.928860,1550.549045,287.138712,-9437.292334
1433.931433,765.703232,1473.978722,-9207.581365
1433.934007,421.136778,363.709035,-9016.155557
1433.936580,574.277424,2660.818731,-8939.585234
1433.939153,765.703232,172.283227,-9303.294269
1433.941727,459.421939,382.851616,-9188.438784
1433.944300,-1435.693560,-2143.969050,-9150.153622
1433.946874,-497.707101,-57.427742,-9073.583299
1433.949447,-2871.387120,-267.996131,-8786.444587
1433.952021,-1990.828403,-784.845813,-8805.587168
1433.954594,-4326.223261,-899.701298,-8882.157491
1433.957167,-2277.967115,-2316.252277,-9169.296203
1433.959741,-57.427742,57.427742,-9131.011042
1433.962314,-459.421939,-478.564520,-9073.583299
1433.964888,229.710970,937.986459,-8997.012976
1433.967461,-1071.984525,-2545.963246,-8690.731683
1433.970035,-2909.672282,-497.707101,-8997.012976
1433.972608,-2431.107762,325.423874,-9188.438784
1433.975181,-516.849682,555.134843,-9341.579430
1433.977755,306.281293,-1684.547110,-8843.872330
1433.980328,-2277.967115,-1282.552914,-8709.874264
1433.982902,-3196.810994,-823.130974,-8690.731683
1433.985475,-2526.820666,516.849682,-9054.440718
1433.988049,-1741.974853,-516.849682,-9111.868461
1433.990624,-1339.980656,-1416.550979,-8958.727814
1433.993199,-1473.978722,-1627.119368,-8709.874264
1433.995774,-1856.830338,114.855485,-8997.012976
1433.998349,-401.994197,1339.980656,-9284.151688
1434.000924,1052.841944,995.414202,-9169.296203
1434.003499,2392.822600,669.990328,-9188.438784
1434.006074,1512.263883,95.712904,-9265.009107
1434.008649,631.705166,555.134843,-9169.296203
1434.011224,-76.570323,1454.836141,-9111.868461
1434.013799,-727.418070,1359.123237,-8977.870395
1434.016374,-937.986459,1071.984525,-9111.868461
1434.018949,-1531.406464,-478.564520,-9169.296203
1434.021524,-1014.556782,861.416136,-9303.294269
1434.024099,-459.421939,-401.994197,-9207.581365
1434.026674,1416.550979,2986.242605,-8958.727814
1434.029249,-2354.537438,-612.562586,-8767.302006
1434.031824,631.705166,1129.412267,-9284.151688
1434.034399,-76.570323,-363.709035,-9456.434915
1434.036974,2124.826469,1071.984525,-9265.009107
1434.039549,421.136778,784.845813,-8977.870395
1434.042124,95.712904,229.710970,-8977.870395
1434.044699,1397.408398,2469.392923,-9111.868461
1434.047274,-631.705166,-2086.541307,-9188.438784
1434.049850,-57.427742,153.140646,-8958.727814
1434.052425,-1225.125171,-1014.556782,-9226.723946
1434.055000,-1550.549045,593.420005,-8920.442653
1434.057575,-2641.676150,-746.560651,-8729.016845
1434.060150,-4058.227130,-1359.123237,-8843.872330
1434.062725,-2354.537438,-1837.687757,-9054.440718
1434.065300,-689.132909,497.707101,-9265.009107
1434.067875,-612.562586,-669.990328,-9150.153622
1434.070450,248.853550,57.427742,-8843.872330
1434.073025,-2297.109696,-976.271621,-9188.438784
1434.075600,-1225.125171,-2373.680019,-8863.014910
1434.078175,-57.427742,-191.425808,-8767.302006
1434.080750,-1167.697429,555.134843,-9169.296203
1434.083325,-2163.111630,-727.418070,-8939.585234
1434.085900,-1895.115499,-267.996131,-8575.876198
1434.088475,-3120.240670,-1588.834206,-8843.872330
1434.091050,-1263.410333,-95.712904,-8863.014910
1434.093626,-2009.970984,-497.707101,-9303.294269
1434.096202,-3158.525832,-2584.248408,-9073.583299
1434.098778,-1205.982590,497.707101,-8729.016845
1434.101354,-1244.267752,114.855485,-8958.727814
1434.103930,612.562586,2660.818731,-9341.579430
1434.106506,-612.562586,-153.140646,-9245.866526
1434.109082,3139.383251,1244.267752,-9265.009107
1434.111658,1263.410333,-650.847747,-9360.722011
1434.114234,1263.410333,1301.695494,-9073.583299
1434.116810,-344.566454,1588.834206,-8977.870395
1434.119386,-1435.693560,1186.840010,-9111.868461
1434.121961,-382.851616,535.992262,-9207.581365
1434.124537,-1473.978722,574.277424,-9341.579430
1434.127113,-1091.127106,-133.998066,-9245.866526
1434.129689,3196.810994,2258.824534,-8863.014910
1434.132265,-1129.412267,-1033.699363,-9054.440718
1434.134841,1914.258080,1741.974853,-8652.446522
1434.137417,-631.705166,-880.558717,-9188.438784
1434.139993,95.712904,-1110.269686,-9513.862658
1434.142569,1837.687757,2852.244539,-9035.298138
1434.145145,229.710970,287.138712,-8958.727814
1434.147721,976.271621,2679.961312,-8997.012976
1434.150297,19.142581,-842.273555,-9245.866526
1434.152873,574.277424,-727.418070,-9226.723946
1434.155449,-1225.125171,-746.560651,-9131.011042
1434.158025,-1225.125171,95.712904,-9016.155557
1434.160601,-2909.672282,765.703232,-8786.444587
1434.163177,-3598.805190,-2756.531635,-8690.731683
1434.165753,-1359.123237,19.142581,-8805.587168
1434.168329,-3215.953574,-1971.685822,-9226.723946
1434.170904,248.853550,823.130974,-9169.296203
1434.173480,-861.416136,-344.566454,-9035.298138
1434.176056,478.564520,-669.990328,-8748.159426
1434.178632,-2718.246474,-2163.111630,-8824.729749
1434.181208,-918.843878,-1397.408398,-8958.727814
1434.183784,-401.994197,-842.273555,-8901.300072
1434.186360,-535.992262,918.843878,-9379.864592
1434.188936,-2277.967115,-1397.408398,-8901.300072
1434.191512,-2679.961312,-1033.699363,-8633.303941
1434.194088,-2947.957443,-976.271621,-8824.729749
1434.196664,-2009.970984,593.420005,-9188.438784
1434.199241,-2354.537438,-1569.691626,-9150.153622
1434.201818,-1646.261949,-1205.982590,-8824.729749
1434.204395,-2048.256146,-555.134843,-8824.729749
1434.206972,-114.855485,1722.832272,-9150.153622
1434.209548,689.132909,918.843878,-9131.011042
1434.212125,1186.840010,1244.267752,-9207.581365
1434.214702,765.703232,-172.283227,-9418.149754
1434.217279,1091.127106,765.703232,-9169.296203
1434.219856,76.570323,1301.695494,-9035.298138
1434.222432,-746.560651,1435.693560,-8920.442653
1434.225009,-1091.127106,861.416136,-9169.296203
1434.227586,-1225.125171,-210.568389,-9265.009107
1434.230163,-382.851616,1416.550979,-9131.011042
1434.232740,57.427742,-803.988394,-9188.438784
1434.235316,1416.550979,2775.674216,-9073.583299
1434.237893,-1895.115499,38.285162,-8824.729749
1434.240470,1129.412267,1033.699363,-9111.868461
1434.243047,-363.709035,-95.712904,-9418.149754
1434.245624,1569.691626,689.132909,-9284.151688
1434.248200,976.271621,2067.398726,-8958.727814
1434.250777,57.427742,344.566454,-9092.725880
1434.253354,1244.267752,2201.396792,-9111.868461
1434.255931,-478.564520,-2029.113565,-9265.009107
1434.258507,727.418070,0.000000,-8997.012976
1434.261084,-2163.111630,-1301.695494,-9054.440718
1434.263661,-1933.400661,803.988394,-8863.014910
1434.266238,-3273.381317,-1761.117434,-8729.016845
1434.268815,-2565.105827,-229.710970,-8863.014910
1434.271391,-2699.103893,-1990.828403,-9092.725880
1434.273968,-133.998066,19.142581,-9111.868461
1434.276545,-76.570323,-459.421939,-8920.442653
1434.279123,-287.138712,-574.277424,-8939.585234
1434.281701,-363.709035,-1110.269686,-8786.444587
1434.284279,-3598.805190,-401.994197,-9111.868461
1434.286857,-3828.516160,-1454.836141,-9226.723946
1434.289434,1397.408398,287.138712,-9169.296203
1434.292012,-1703.689691,-861.416136,-8939.585234
1434.294590,-2143.969050,-344.566454,-8805.587168
1434.297168,-2507.678085,95.712904,-8786.444587
1434.299746,-3043.670347,-1627.119368,-9284.151688
1434.302324,-1148.554848,-1359.123237,-9016.155557
1434.304902,-1818.545176,-1167.697429,-8748.159426
1434.307480,-2067.398726,382.851616,-8901.300072
1434.310057,-899.701298,1473.978722,-9092.725880
1434.312635,1588.834206,459.421939,-9265.009107
1434.315213,2469.392923,1359.123237,-9169.296203
1434.317791,1052.841944,-535.992262,-9379.864592
1434.320369,995.414202,1569.691626,-9188.438784
1434.322947,-114.855485,1148.554848,-8997.012976
1434.325525,-421.136778,1167.697429,-9073.583299
1434.328103,-1722.832272,210.568389,-9131.011042
1434.330680,-325.423874,-1550.549045,-9073.583299
1434.333258,957.129040,-344.566454,-8958.727814
1434.335836,2354.537438,746.560651,-8920.442653
1434.338414,669.990328,57.427742,-8939.585234
1434.340992,210.568389,421.136778,-8786.444587
1434.343570,746.560651,-363.709035,-9035.298138
1434.346148,1110.269686,382.851616,-9360.722011
1434.348726,612.562586,1186.840010,-9284.151688
1434.351303,1473.978722,1646.261949,-8863.014910
1434.353881,784.845813,1990.828403,-9054.440718
1434.356459,210.568389,-708.275490,-9207.581365
1434.359037,191.425808,-899.701298,-9131.011042
1434.361615,-1263.410333,-823.130974,-9188.438784
1434.364193,-1454.836141,-191.425808,-8920.442653
1434.366771,-3120.240670,631.705166,-8843.872330
1434.369349,-3349.951640,-2201.396792,-8633.303941
1434.371926,-2316.252277,-440.279358,-8863.014910
1434.374504,-2182.254211,-1454.836141,-9245.866526
1434.377082,-133.998066,344.566454,-9111.868461
1434.379660,-440.279358,-172.283227,-8920.442653
1434.382218,-325.423874,-344.566454,-8977.870395
1434.384776,-3043.670347,1990.828403,-9226.723946
1434.387333,-5800.201982,-4594.219392,-9131.011042
1434.389891,4402.793584,-38.285162,-8595.018779
1434.392449,1512.263883,1301.695494,-8997.012976
1434.395007,-3445.664544,-3311.666478,-8863.014910
1434.397564,-2660.818731,1741.974853,-8575.876198
1434.400122,-3522.234867,-3369.094221,-9150.153622
1434.402680,842.273555,1512.263883,-8824.729749
1434.405238,-3847.658741,-4651.647134,-9188.438784
1434.407795,-1607.976787,1454.836141,-8843.872330
1434.410353,-2277.967115,57.427742,-8824.729749
1434.412911,1473.978722,1014.556782,-9207.581365
1434.415469,-229.710970,669.990328,-9379.864592
1434.418026,2067.398726,612.562586,-9360.722011
1434.420584,1818.545176,382.851616,-9169.296203
1434.423142,1033.699363,937.986459,-9073.583299
1434.425700,-76.570323,1627.119368,-8882.157491
1434.428258,-1588.834206,191.425808,-9092.725880
1434.430815,-746.560651,612.562586,-9188.438784
1434.433373,-2622.533570,497.707101,-9303.294269
1434.435931,2220.539373,574.277424,-9035.298138
1434.438489,459.421939,-57.427742,-9016.155557
1434.441046,-1301.695494,-57.427742,-9073.583299
1434.443604,1607.976787,2890.529701,-8863.014910
1434.446162,-937.986459,-1665.404530,-9533.005238
1434.448720,2411.965181,2009.970984,-9322.436850
1434.451277,0.000000,899.701298,-9035.298138
1434.453835,1473.978722,1550.549045,-9111.868461
1434.456393,325.423874,1397.408398,-9016.155557
1434.458951,746.560651,-995.414202,-9303.294269
1434.461508,-1378.265818,-1129.412267,-9054.440718
1434.464066,-153.140646,-937.986459,-8920.442653
1434.466624,-3005.385186,574.277424,-8805.587168
1434.469182,-2469.392923,-2794.816797,-8882.157491
1434.471739,-1799.402595,784.845813,-8767.302006
1434.474297,-3751.945837,-3177.668413,-9245.866526
1434.476855,1263.410333,937.986459,-9169.296203
1434.479413,-1167.697429,-1282.552914,-9016.155557
1434.481971,899.701298,-401.994197,-8767.302006
1434.484532,-803.988394,-1722.832272,-8863.014910
1434.487093,-2124.826469,440.279358,-8939.585234
1434.489654,-4173.082614,38.285162,-9418.149754
1434.492215,-95.712904,-842.273555,-9111.868461
1434.494776,-1588.834206,-957.129040,-8939.585234
1434.497337,-2297.109696,-1320.838075,-8556.733618
1434.499898,-1722.832272,421.136778,-8748.159426
1434.502459,-3407.379382,-1990.828403,-9284.151688
1434.505020,-1301.695494,-1244.267752,-8997.012976
1434.507581,-2756.531635,-1378.265818,-8786.444587
1434.510142,-746.560651,1014.556782,-9035.298138
1434.512704,133.998066,2086.541307,-9054.440718
1434.515265,-440.279358,-95.712904,-9379.864592
1434.517826,2967.100024,1052.841944,-9245.866526
1434.520387,1627.119368,-210.568389,-9226.723946
1434.522948,1148.554848,1588.834206,-9054.440718
1434.525509,-727.418070,1493.121302,-9016.155557
1434.528070,-1684.547110,363.709035,-9169.296203
1434.530631,-1378.265818,1167.697429,-9284.151688
1434.533192,229.710970,-1837.687757,-8939.585234
1434.535753,650.847747,2392.822600,-9169.296203
1434.538314,-2067.398726,2201.396792,-9552.147819
1434.540876,-880.558717,1856.830338,-8901.300072
1434.543437,133.998066,-114.855485,-9035.298138
1434.545998,1091.127106,306.281293,-9284.151688
1434.548559,957.129040,593.420005,-9322.436850
1434.551120,267.996131,2182.254211,-9303.294269
1434.553681,-57.427742,1071.984525,-9035.298138
1434.556242,1684.547110,2124.826469,-9054.440718
1434.558803,-19.142581,-1627.119368,-9303.294269
1434.561364,-153.140646,-535.992262,-8977.870395
1434.563925,-1741.974853,-957.129040,-9016.155557
1434.566486,-2852.244539,248.853550,-8748.159426
1434.569047,-2909.672282,-1416.550979,-8671.589102
1434.571609,-2679.961312,-401.994197,-8901.300072
1434.574170,-2718.246474,-2507.678085,-9226.723946
1434.576731,440.279358,401.994197,-9169.296203
1434.579292,-516.849682,-937.986459,-8977.870395
1434.581853,95.712904,1167.697429,-9035.298138
1434.584414,-2373.680019,1129.412267,-9207.581365
1434.586978,-5685.346498,-3388.236802,-8882.157491
1434.589542,1531.406464,-306.281293,-8882.157491
1434.592106,-1665.404530,-229.710970,-9188.438784
1434.594670,-2450.250342,-76.570323,-8958.727814
1434.597234,-3464.807125,38.285162,-8729.016845
1434.599798,-1856.830338,-2297.109696,-8882.157491
1434.602362,-478.564520,459.421939,-9016.155557
1434.604926,-4402.793584,-3809.373579,-9341.579430
1434.607490,-2124.826469,631.705166,-8824.729749
1434.610055,-2258.824534,1531.406464,-8901.300072
1434.612619,1761.117434,1493.121302,-9188.438784
1434.615183,-497.707101,133.998066,-9226.723946
1434.617747,2794.816797,497.707101,-9379.864592
1434.620311,1550.549045,95.712904,-9284.151688
1434.622875,1339.980656,1550.549045,-9092.725880
1434.625439,344.566454,2124.826469,-8843.872330
1434.628003,-1895.115499,-229.710970,-9131.011042
1434.630567,-976.271621,746.560651,-9379.864592
1434.633131,-497.707101,1225.125171,-9207.581365
1434.635695,-95.712904,-172.283227,-9207.581365
1434.638259,478.564520,957.129040,-8863.014910
1434.640823,-631.705166,363.709035,-8824.729749
1434.643387,-19.142581,1320.838075,-9150.153622
1434.645951,957.129040,727.418070,-9418.149754
1434.648515,1129.412267,669.990328,-9437.292334
1434.651079,880.558717,1454.836141,-9035.298138
1434.653643,1301.695494,1282.552914,-8958.727814
1434.656207,382.851616,1071.984525,-9073.583299
1434.658771,-612.562586,-1186.840010,-9207.581365
1434.661335,-1052.841944,287.138712,-8997.012976
1434.663900,-2813.959378,-2392.822600,-8977.870395
1434.666464,-1799.402595,1167.697429,-8709.874264
1434.669028,-4996.213589,-2928.814862,-8824.729749
1434.671592,-861.416136,784.845813,-8901.300072
1434.674156,-2354.537438,-1914.258080,-9169.296203
1434.676720,574.277424,593.420005,-9016.155557
1434.679284,-1110.269686,-267.996131,-9111.868461
1434.681848,95.712904,-727.418070,-8882.157491
1434.684412,-1703.689691,976.271621,-8920.442653
1434.686976,-3273.381317,-3081.955509,-8882.157491
1434.689522,1091.127106,1875.972918,-9284.151688
1434.692069,-2947.957443,-2316.252277,-9111.868461
1434.694615,-880.558717,172.283227,-8595.018779
1434.697161,-3866.801322,-1359.123237,-8786.444587
1434.699708,-1531.406464,287.138712,-9150.153622
1434.702254,-3101.098090,-1875.972918,-9111.868461
1434.704801,-1933.400661,-1550.549045,-9016.155557
1434.707347,-1550.549045,1339.980656,-8671.589102
1434.709893,114.855485,1550.549045,-9284.151688
1434.712440,995.414202,382.851616,-9188.438784
1434.714986,2373.680019,861.416136,-9150.153622
1434.717533,1665.404530,191.425808,-9418.149754
1434.720079,593.420005,650.847747,-9245.866526
1434.722625,114.855485,2201.396792,-8939.585234
1434.725172,-1493.121302,325.423874,-9073.583299
1434.727718,-669.990328,306.281293,-9188.438784
1434.730264,-612.562586,-478.564520,-9016.155557
1434.732811,1091.127106,765.703232,-9265.009107
1434.735357,-746.560651,1761.117434,-9111.868461
1434.737904,-708.275490,1186.840010,-9054.440718
1434.740450,133.998066,1550.549045,-9207.581365
1434.742996,267.996131,287.138712,-9418.149754
1434.745543,1818.545176,823.130974,-9418.149754
1434.748089,1244.267752,1378.265818,-9092.725880
1434.750635,210.568389,976.271621,-9150.153622
1434.753182,1052.841944,2029.113565,-9092.725880
1434.755728,-727.418070,-1895.115499,-9265.009107
1434.758275,76.570323,210.568389,-9073.583299
1434.760821,-2277.967115,-1473.978722,-8920.442653
1434.763367,-2258.824534,976.271621,-8843.872330
1434.765914,-4421.936165,-2813.959378,-8786.444587
1434.768460,-1607.976787,-95.712904,-8824.729749
1434.771007,-2947.957443,-1416.550979,-9265.009107
1434.773553,114.855485,401.994197,-9188.438784
1434.776099,-344.566454,-1091.127106,-8977.870395
1434.778646,-95.712904,-516.849682,-9188.438784
1434.781192,-1856.830338,-1473.978722,-8805.587168
1434.783738,-2316.252277,-1550.549045,-8997.012976
1434.786285,95.712904,-1359.123237,-9111.868461
1434.788831,-593.420005,-248.853550,-9054.440718
1434.791383,-2431.107762,-1454.836141,-8863.014910
1434.793934,-1971.685822,-57.427742,-8614.161360
1434.796485,-2565.105827,-1531.406464,-8863.014910
1434.799037,-2373.680019,-2029.113565,-9265.009107
1434.801588,-2316.252277,-937.986459,-8805.587168
1434.804139,-1397.408398,880.558717,-8901.300072
1434.806690,-1052.841944,1895.115499,-9265.009107
1434.809242,1071.984525,535.992262,-9169.296203
1434.811793,2565.105827,669.990328,-9245.866526
1434.814344,1971.685822,-612.562586,-9341.579430
1434.816896,1129.412267,1397.408398,-9245.866526
1434.819447,-708.275490,1244.267752,-8920.442653
1434.821998,-957.129040,1799.402595,-8997.012976
1434.824550,-1627.119368,478.564520,-9341.579430
1434.827101,-631.705166,669.990328,-9265.009107
1434.829652,-1703.689691,382.851616,-9169.296203
1434.832204,1607.976787,-306.281293,-9150.153622
1434.834755,1856.830338,3426.521963,-8977.870395
1434.837306,-880.558717,-153.140646,-8958.727814
1434.839858,1263.410333,784.845813,-9475.577496
1434.842409,-210.568389,-267.996131,-9456.434915
1434.844960,2220.539373,1493.121302,-9169.296203
1434.847512,1148.554848,3273.381317,-8786.444587
1434.850063,172.283227,-172.283227,-9245.866526
1434.852614,-267.996131,-210.568389,-9054.440718
1434.855166,-478.564520,-1588.834206,-9092.725880
1434.857717,-1569.691626,-363.709035,-8863.014910
1434.860268,-3503.092286,-382.851616,-8767.302006
1434.862820,-3790.230998,-1512.263883,-8786.444587
1434.865371,-2316.252277,-842.273555,-8843.872330
1434.867922,-1378.265818,-746.560651,-9245.866526
1434.870474,-631.705166,-478.564520,-9188.438784
1434.873025,153.140646,-344.566454,-8863.014910
1434.875576,-1339.980656,-2584.248408,-8863.014910
1434.878128,325.423874,689.132909,-8805.587168
1434.880679,-2603.390989,-2450.250342,-8863.014910
1434.883230,19.142581,593.420005,-9284.151688
1434.885782,-2660.818731,-1320.838075,-9111.868461
1434.888333,-1799.402595,172.283227,-8729.016845
1434.890884,-3407.379382,-1148.554848,-8805.587168
1434.893440,-1397.408398,-478.564520,-8977.870395
1434.895996,-2660.818731,-612.562586,-9131.011042
1434.898552,-2967.100024,-2048.256146,-9111.868461
1434.901108,-765.703232,2699.103893,-8882.157491
1434.903663,267.996131,-76.570323,-9188.438784
1434.906219,1588.834206,2258.824534,-9245.866526
1434.908775,1454.836141,-516.849682,-9303.294269
1434.911331,2373.680019,1129.412267,-9245.866526
1434.913887,-382.851616,-76.570323,-9111.868461
1434.916443,210.568389,1914.258080,-8824.729749
1434.918998,-1473.978722,421.136778,-9092.725880
1434.921554,-1282.552914,401.994197,-9322.436850
1434.924110,-38.285162,2124.826469,-9131.011042
1434.926666,-1684.547110,-842.273555,-9265.009107
1434.929222,3426.521963,2201.396792,-8805.587168
1434.931777,-2775.674216,746.560651,-9150.153622
1434.934333,-76.570323,133.998066,-9341.579430
1434.936889,1722.832272,1761.117434,-9379.864592
1434.939445,306.281293,-325.423874,-9437.292334
1434.942001,1703.689691,2641.676150,-8997.012976
1434.944556,344.566454,421.136778,-8958.727814
1434.947112,1473.978722,1110.269686,-9245.866526
1434.949668,-1167.697429,-1895.115499,-9092.725880
1434.952224,133.998066,229.710970,-8997.012976
1434.954780,-3541.377448,-421.136778,-8709.874264
1434.957336,-2603.390989,-1454.836141,-8767.302006
1434.959891,-3388.236802,57.427742,-8767.302006
1434.962447,-2507.678085,-2124.826469,-9188.438784
1434.965003,440.279358,401.994197,-9169.296203
1434.967559,-1320.838075,-1091.127106,-9169.296203
1434.970115,-19.142581,1244.267752,-8997.012976
1434.972670,-1780.260014,-1416.550979,-8997.012976
1434.975226,172.283227,-2660.818731,-8748.159426
1434.977782,-861.416136,937.986459,-9035.298138
1434.980338,-2756.531635,-2124.826469,-9341.579430
1434.982894,-1473.978722,459.421939,-8767.302006
1434.985450,-2928.814862,-1550.549045,-8882.157491
1434.988005,-1225.125171,57.427742,-8709.874264
1434.990561,-3866.801322,-3349.951640,-9111.868461
1434.993117,-2699.103893,-1990.828403,-9092.725880
1434.995676,-1110.269686,1722.832272,-8709.874264
1434.998236,-267.996131,803.988394,-9150.153622
1435.000795,995.414202,957.129040,-9265.009107
1435.003354,2986.242605,1282.552914,-9169.296203
1435.005914,2048.256146,-650.847747,-9360.722011
1435.008473,1091.127106,1435.693560,-9245.866526
1435.011032,-248.853550,727.418070,-8901.300072
1435.013592,-1148.554848,1091.127106,-8901.300072
1435.016151,-937.986459,-248.853550,-9188.438784
1435.018710,-1263.410333,-1454.836141,-9265.009107
1435.021270,2947.957443,1473.978722,-8805.587168
1435.023829,1512.263883,-612.562586,-8920.442653
1435.026389,-1205.982590,2622.533570,-9188.438784
1435.028948,-727.418070,918.843878,-9092.725880
1435.031507,1627.119368,574.277424,-9379.864592
1435.034067,957.129040,1129.412267,-9437.292334
1435.036626,1014.556782,1071.984525,-9092.725880
1435.039185,1129.412267,2220.539373,-8977.870395
1435.041745,76.570323,-689.132909,-9303.294269
1435.044304,133.998066,-191.425808,-9054.440718
1435.046863,-1531.406464,-1091.127106,-9207.581365
1435.049423,-2220.539373,-535.992262,-8805.587168
1435.051982,-3483.949706,-1282.552914,-8748.159426
1435.054541,-3292.523898,-382.851616,-8805.587168
1435.057101,-2699.103893,-1837.687757,-9016.155557
1435.059660,-153.140646,114.855485,-9188.438784
1435.062219,-861.416136,-306.281293,-9131.011042
1435.064779,421.136778,-1148.554848,-8748.159426
1435.067338,497.707101,0.000000,-8920.442653
1435.069898,-4555.934230,-210.568389,-9035.298138
1435.072457,-1933.400661,-2201.396792,-9207.581365
1435.075016,689.132909,1646.261949,-9054.440718
1435.077576,-3311.666478,-3369.094221,-9073.583299
1435.080135,-1359.123237,1569.691626,-8556.733618
1435.082694,-3751.945837,-2890.529701,-8958.727814
1435.085254,-727.418070,172.283227,-8920.442653
1435.087813,-3330.809059,-3273.381317,-9016.155557
1435.090372,-497.707101,555.134843,-9054.440718
1435.092932,-957.129040,2852.244539,-9150.153622
1435.095491,-95.712904,-133.998066,-9188.438784
1435.098054,3981.656806,1684.547110,-9054.440718
1435.100616,2067.398726,-1052.841944,-9379.864592
1435.103179,976.271621,1703.689691,-9226.723946
1435.105741,-1320.838075,191.425808,-9054.440718
1435.108304,-1225.125171,1339.980656,-9035.298138
1435.110866,-1320.838075,-76.570323,-9341.579430
1435.113429,459.421939,1320.838075,-9341.579430
1435.115991,-1320.838075,153.140646,-9054.440718
1435.118554,172.283227,1914.258080,-9226.723946
1435.121116,-995.414202,918.843878,-8901.300072
1435.123679,669.990328,1320.838075,-9245.866526
1435.126241,1550.549045,727.418070,-9284.151688
1435.128804,1473.978722,325.423874,-9303.294269
1435.131366,708.275490,1186.840010,-9226.723946
1435.133929,842.273555,1741.974853,-9035.298138
1435.136492,306.281293,-95.712904,-9131.011042
1435.139054,-287.138712,76.570323,-9073.583299
1435.141617,-1435.693560,-1225.125171,-9035.298138
1435.144179,-3081.955509,-899.701298,-8901.300072
1435.146742,-3675.375514,-2297.109696,-8767.302006
1435.149304,-2488.535504,287.138712,-8748.159426
1435.151867,-2603.390989,-1110.269686,-9073.583299
1435.154429,363.709035,-38.285162,-9131.011042
1435.156992,-727.418070,114.855485,-9150.153622
1435.159554,133.998066,-1512.263883,-8824.729749
1435.162117,-2507.678085,-440.279358,-9035.298138
1435.164679,-2029.113565,-325.423874,-9016.155557
1435.167242,421.136778,1339.980656,-9169.296203
1435.169804,-2469.392923,-1818.545176,-9073.583299
1435.172367,-1627.119368,-191.425808,-8863.014910
1435.174929,-4039.084549,-1339.980656,-8824.729749
1435.177492,-1225.125171,-957.129040,-8939.585234
1435.180055,-3522.234867,-1416.550979,-9035.298138
1435.182617,-2220.539373,-1416.550979,-9111.868461
1435.185180,-880.558717,2526.820666,-8939.585234
1435.187742,612.562586,-38.285162,-9303.294269
1435.190305,1435.693560,2182.254211,-9207.581365
1435.192867,2201.396792,-76.570323,-9322.436850
1435.195430,2124.826469,918.843878,-9245.866526
1435.197992,229.710970,76.570323,-9092.725880
1435.200538,-306.281293,1971.685822,-8748.159426
1435.203084,-1588.834206,-325.423874,-9016.155557
1435.205629,19.142581,-114.855485,-9111.868461
1435.208175,727.418070,-306.281293,-9150.153622
1435.210721,-1320.838075,803.988394,-9111.868461
1435.213267,-133.998066,1205.982590,-9111.868461
1435.215812,1320.838075,2354.537438,-8958.727814
1435.218358,172.283227,-401.994197,-9303.294269
1435.220904,1875.972918,918.843878,-9188.438784
1435.223450,1186.840010,574.277424,-9131.011042
1435.225995,1550.549045,995.414202,-9073.583299
1435.228541,1110.269686,1531.406464,-8997.012976
1435.231087,-1359.123237,-1837.687757,-9284.151688
1435.233633,0.000000,1531.406464,-9016.155557
1435.236178,-3101.098090,-3120.240670,-8939.585234
1435.238724,-2277.967115,1378.265818,-8843.872330
1435.241270,-5206.781978,-3407.379382,-8901.300072
1435.243816,-1646.261949,-574.277424,-8958.727814
1435.246361,-1473.978722,57.427742,-9092.725880
1435.248907,-612.562586,-401.994197,-9303.294269
1435.251453,995.414202,-1301.695494,-8595.018779
1435.253999,-229.710970,-2584.248408,-8977.870395
1435.256544,-803.988394,1186.840010,-8939.585234
1435.259090,-4364.508422,-1186.840010,-9016.155557
1435.261636,-1320.838075,-708.275490,-9131.011042
1435.264182,-2526.820666,-133.998066,-8958.727814
1435.266727,-2526.820666,-957.129040,-8805.587168
1435.269273,-1550.549045,-593.420005,-8882.157491
1435.271819,-3215.953574,-2622.533570,-9054.440718
1435.274365,-2679.961312,-1186.840010,-9016.155557
1435.276910,-1397.408398,1205.982590,-8958.727814
1435.279456,-535.992262,1320.838075,-9169.296203
1435.282002,669.990328,1397.408398,-9265.009107
1435.284548,3311.666478,880.558717,-9265.009107
1435.287093,2105.683888,-325.423874,-9303.294269
1435.289639,1244.267752,1703.689691,-9150.153622
1435.292185,-1320.838075,191.425808,-8920.442653
1435.294731,-689.132909,1837.687757,-9035.298138
1435.297276,-823.130974,-210.568389,-9245.866526
1435.299822,-918.843878,-957.129040,-9265.009107
1435.302373,1378.265818,1167.697429,-9092.725880
1435.304924,-727.418070,497.707101,-8997.012976
1435.307475,440.279358,1186.840010,-8997.012976
1435.310026,1091.127106,1493.121302,-9111.868461
1435.312576,1052.841944,-995.414202,-9418.149754
1435.315127,1761.117434,2297.109696,-9322.436850
1435.317678,191.425808,-57.427742,-9150.153622
1435.320229,1971.685822,2124.826469,-9035.298138
1435.322780,-1914.258080,-1454.836141,-9111.868461
1435.325331,133.998066,727.418070,-9111.868461
1435.327881,-2737.389054,-2220.539373,-8939.585234
1435.330432,-2316.252277,-19.142581,-8977.870395
1435.332983,-4804.787781,-2431.107762,-8786.444587
1435.335534,-1646.261949,267.996131,-8748.159426
1435.338085,-2775.674216,-1378.265818,-9092.725880
1435.340636,38.285162,-1091.127106,-9073.583299
1435.343186,-267.996131,440.279358,-8939.585234
1435.345737,-2258.824534,1110.269686,-9265.009107
1435.348288,-3656.232933,-3713.660675,-9016.155557
1435.350839,2335.394858,-535.992262,-8671.589102
1435.353390,-1493.121302,-631.705166,-9092.725880
1435.355941,-2411.965181,-478.564520,-8805.587168
1435.358492,-2565.105827,899.701298,-8786.444587
1435.361042,-3675.375514,-2775.674216,-8977.870395
1435.363593,-957.129040,248.853550,-8805.587168
1435.366144,-3905.086483,-3215.953574,-9035.298138
1435.368695,-535.992262,1818.545176,-8939.585234
1435.371246,-1378.265818,1454.836141,-9188.438784
1435.373797,1971.685822,612.562586,-9150.153622
1435.376347,2890.529701,1607.976787,-9150.153622
1435.378898,1569.691626,-1205.982590,-9303.294269
1435.381449,1914.258080,2258.824534,-9035.298138
1435.384000,-2450.250342,-57.427742,-8977.870395
1435.386551,-191.425808,2029.113565,-9016.155557
1435.389102,-1014.556782,-765.703232,-9226.723946
1435.391652,765.703232,267.996131,-9341.579430
1435.394203,-1110.269686,1033.699363,-8939.585234
1435.396754,153.140646,114.855485,-8958.727814
1435.399305,-172.283227,1741.974853,-9131.011042
1435.401856,574.277424,1282.552914,-9169.296203
1435.404411,1722.832272,937.986459,-9379.864592
1435.406967,1225.125171,957.129040,-9379.864592
1435.409522,1052.841944,708.275490,-9226.723946
1435.412078,1033.699363,1607.976787,-8997.012976
1435.414633,-1148.554848,-574.277424,-9169.296203
1435.417189,-344.566454,516.849682,-8977.870395
1435.419745,-3139.383251,-2048.256146,-8997.012976
1435.422300,-2526.820666,-689.132909,-8843.872330
1435.424856,-4747.360038,-2048.256146,-8882.157491
1435.427411,-1914.258080,-210.568389,-8882.157491
1435.429967,-1818.545176,-133.998066,-9131.011042
1435.432522,95.712904,-1110.269686,-9150.153622
1435.435078,-325.423874,191.425808,-8882.157491
1435.437633,-3101.098090,-1186.840010,-9054.440718
1435.440189,-363.709035,-765.703232,-9073.583299
1435.442744,-2584.248408,-497.707101,-8786.444587
1435.445300,-1473.978722,-1971.685822,-9207.581365
1435.447855,-1741.974853,1646.261949,-8805.587168
1435.450411,-4153.940034,-3177.668413,-9035.298138
1435.452966,-363.709035,880.558717,-8575.876198
1435.455522,-3809.373579,-2201.396792,-8977.870395
1435.458077,-2086.541307,-1052.841944,-9054.440718
1435.460633,-1914.258080,1359.123237,-8920.442653
1435.463189,2201.396792,995.414202,-9226.723946
1435.465744,-248.853550,1148.554848,-9341.579430
1435.468300,3215.953574,1588.834206,-9341.579430
1435.470855,1780.260014,-440.279358,-9188.438784
1435.473411,1722.832272,1493.121302,-9092.725880
1435.475966,-746.560651,2067.398726,-8729.016845
1435.478522,-1646.261949,-114.855485,-9207.581365
1435.481077,306.281293,631.705166,-9303.294269
1435.483633,114.855485,-746.560651,-9169.296203
1435.486188,-459.421939,2335.394858,-9073.583299
1435.488744,-1607.976787,-38.285162,-8997.012976
1435.491299,842.273555,2048.256146,-9111.868461
1435.493855,1263.410333,593.420005,-9245.866526
1435.496410,2105.683888,880.558717,-9379.864592
1435.498966,842.273555,1167.697429,-9131.011042
1435.501522,957.129040,440.279358,-9016.155557
1435.504077,1607.976787,1225.125171,-8997.012976
1435.506636,-2009.970984,-1703.689691,-9054.440718
1435.509195,-57.427742,669.990328,-8920.442653
1435.511754,-3407.379382,-1167.697429,-8824.729749
1435.514313,-2794.816797,-2335.394858,-8824.729749
1435.516872,-3273.381317,765.703232,-8709.874264
1435.519432,-2928.814862,-2105.683888,-9131.011042
1435.521991,784.845813,1550.549045,-9150.153622
1435.524550,-2182.254211,-937.986459,-9284.151688
1435.527109,842.273555,287.138712,-8709.874264
1435.529668,-2545.963246,-287.138712,-9226.723946
1435.532227,-3828.516160,-746.560651,-9169.296203
1435.534786,-535.992262,669.990328,-9073.583299
1435.537345,-2277.967115,-861.416136,-9016.155557
1435.539904,-2737.389054,-1167.697429,-8690.731683
1435.542463,-2163.111630,-669.990328,-8786.444587
1435.545022,-3330.809059,-2526.820666,-8977.870395
1435.547581,-2105.683888,-803.988394,-8939.585234
1435.550140,-1320.838075,1167.697429,-8977.870395
1435.552700,-650.847747,1282.552914,-9245.866526
1435.555259,1607.976787,1110.269686,-9073.583299
1435.557818,2909.672282,957.129040,-9207.581365
1435.560377,2411.965181,229.710970,-9207.581365
1435.562936,708.275490,1014.556782,-9322.436850
1435.565495,-401.994197,363.709035,-8901.300072
1435.568054,-823.130974,1167.697429,-8977.870395
1435.570613,-1129.412267,1856.830338,-9590.432981
1435.573172,-1799.402595,459.421939,-9379.864592
1435.575731,957.129040,1282.552914,-9111.868461
1435.578290,-478.564520,497.707101,-8805.587168
1435.580849,-306.281293,803.988394,-9073.583299
1435.583409,1359.123237,1512.263883,-9169.296203
1435.585968,1071.984525,-57.427742,-9303.294269
1435.588530,1914.258080,1263.410333,-9265.009107
1435.591092,516.849682,440.279358,-9169.296203
1435.593655,1531.406464,1378.265818,-9073.583299
1435.596217,-2048.256146,-1339.980656,-9054.440718
1435.598780,210.568389,593.420005,-9035.298138
1435.601342,-3694.518094,-2029.113565,-8939.585234
1435.603904,-2277.967115,-746.560651,-8920.442653
1435.606467,-4977.071008,-2220.539373,-8920.442653
1435.609029,-3196.810994,-1627.119368,-9035.298138
1435.611592,612.562586,1052.841944,-9150.153622
1435.614154,-1244.267752,-2603.390989,-9092.725880
1435.616716,727.418070,-803.988394,-8709.874264
1435.619279,440.279358,-1550.549045,-9016.155557
1435.621841,-2565.105827,2163.111630,-9092.725880
1435.624404,-4785.645200,-3426.521963,-9341.579430
1435.626966,267.996131,1339.980656,-9054.440718
1435.629528,-3541.377448,-2009.970984,-8882.157491
1435.632091,-612.562586,593.420005,-8709.874264
1435.634653,-3981.656806,-3483.949706,-8920.442653
1435.637216,-2431.107762,-1359.123237,-9054.440718
1435.639778,-2201.396792,363.709035,-8863.014910
1435.642340,-535.992262,823.130974,-9073.583299
1435.644903,2105.683888,1512.263883,-9150.153622
1435.647465,2871.387120,937.986459,-9265.009107
1435.650028,2584.248408,0.000000,-9303.294269
1435.652590,287.138712,1148.554848,-9379.864592
1435.655152,-306.281293,248.853550,-8920.442653
1435.657715,-1033.699363,1569.691626,-8748.159426
1435.660277,-19.142581,-650.847747,-9284.151688
1435.662840,842.273555,937.986459,-9341.579430
1435.665402,-2316.252277,0.000000,-9150.153622
1435.667964,382.851616,-95.712904,-8767.302006
