#time,accel_x,accel_y,accel_z
788.032420,-3849.070898,-74617.701505,-592.164754
788.034959,-3997.112087,-73698.386908,-444.123565
788.037498,-3849.070898,-74311.263306,-444.123565
788.040037,-3701.029710,-74158.044206,-740.205942
788.042576,-3256.906145,-74464.482406,-888.247130
788.045115,-4145.153275,-74311.263306,-1332.370696
788.047654,-3404.947333,-74158.044206,-148.041188
788.050193,-3997.112087,-74004.825107,-740.205942
788.052732,-3997.112087,-74004.825107,-592.164754
788.055271,-3701.029710,-74004.825107,-296.082377
788.057810,-3552.988522,-74004.825107,-1184.329507
788.060349,-3849.070898,-74617.701505,-444.123565
788.062888,-3849.070898,-73851.606007,-1184.329507
788.065427,-3552.988522,-74464.482406,-740.205942
788.067966,-3997.112087,-74311.263306,-592.164754
788.070505,2072.576638,-73851.606007,-8586.388927
788.073044,11695.253884,-74464.482406,-3997.112087
788.075583,-5625.565159,-73391.948708,-3108.864956
788.078122,17320.819043,-74311.263306,-9178.553681
788.080661,-8142.265362,-77222.426198,7105.977043
788.083200,-10362.883188,-74617.701505,-13767.830521
788.085739,8290.306550,-76149.892501,-10807.006753
788.088278,-1332.370696,-74158.044206,-15988.448347
788.090817,7698.141797,-73851.606007,-4293.194464
788.093356,-9326.594869,-71706.538613,5181.441594
788.095895,5625.565159,-74464.482406,1480.411884
788.098434,-3701.029710,-76762.768900,3701.029710
788.100973,-1332.370696,-76456.330700,-4589.276840
788.103512,-7254.018232,-72932.291410,-1036.288319
788.106051,-15692.365970,-72625.853210,7105.977043
788.108590,-10066.800811,-72319.415011,6957.935855
788.111129,-5625.565159,-74158.044206,3552.988522
788.113668,2664.741391,-76915.987999,1924.535449
788.116207,-4589.276840,-75843.454302,2368.659014
788.118746,-11695.253884,-73698.386908,296.082377
788.121285,-14804.118840,-72932.291410,3256.906145
788.123824,-14952.160028,-73698.386908,3997.112087
788.126363,-4885.359217,-74158.044206,-1036.288319
788.128907,10658.965565,-76762.768900,1924.535449
788.131451,-444.123565,-75077.358804,5329.482782
788.133996,-20873.807564,-73085.510509,11251.130318
788.136540,-10807.006753,-73085.510509,-1184.329507
788.139084,5773.606348,-74924.139704,-888.247130
788.141628,-11991.336260,-72625.853210,6661.853478
788.144172,-16728.654289,-77222.426198,888.247130
788.146717,-3552.988522,-72319.415011,-5033.400406
788.149261,-13767.830521,-74924.139704,7402.059420
788.151805,1628.453072,-71246.881314,2516.700203
788.154349,-4441.235652,-72932.291410,9326.594869
788.156893,-5329.482782,-75843.454302,3256.906145
788.159438,-9474.636058,-76149.892501,1776.494261
788.161982,-11547.212695,-74004.825107,-1628.453072
788.164526,-3552.988522,-73698.386908,-148.041188
788.167070,-4589.276840,-73851.606007,740.205942
788.169614,-4441.235652,-73391.948708,740.205942
788.172159,-11251.130318,-73085.510509,10362.883188
788.174703,-12139.377449,-75383.797003,7105.977043
788.177247,-444.123565,-76609.549800,5921.647536
788.179791,-3997.112087,-75230.577904,2516.700203
788.182335,-14359.995275,-73085.510509,5477.523971
788.184880,-4293.194464,-72932.291410,1184.329507
788.187424,-2664.741391,-75383.797003,-16136.489536
788.189968,9918.759623,-75843.454302,-13767.830521
788.192512,-2220.617826,-71706.538613,3256.906145
788.195056,-148.041188,-73545.167808,2072.576638
788.197601,1332.370696,-75230.577904,3404.947333
788.200145,-5033.400406,-77375.645298,740.205942
788.202689,-3108.864956,-76456.330700,-6957.935855
788.205233,-1628.453072,-75077.358804,-5477.523971
788.207778,-4293.194464,-74311.263306,-6513.812290
788.210322,1776.494261,-73698.386908,-2664.741391
788.212866,3552.988522,-73545.167808,-5921.647536
788.215410,1776.494261,-74311.263306,-6957.935855
788.217954,2220.617826,-76149.892501,-4293.194464
788.220499,-13619.789333,-74004.825107,-592.164754
788.223043,2812.782580,-74004.825107,-3849.070898
788.225587,-0.000000,-71246.881314,-296.082377
788.228131,11991.336260,-75537.016103,-3701.029710
788.230680,13915.871710,-76915.987999,-10214.842000
788.233229,-25167.002028,-76149.892501,15840.407159
788.235778,-1332.370696,-72166.195912,-15840.407159
788.238327,-7698.141797,-73391.948708,8438.347739
788.240876,6809.894666,-74311.263306,-13619.789333
788.243425,4293.194464,-75230.577904,1184.329507
788.245974,-6809.894666,-78294.959896,-8586.388927
788.248522,13619.789333,-72625.853210,-11103.089130
788.251071,-22206.178260,-74770.920605,-1776.494261
788.253620,6513.812290,-75230.577904,-9918.759623
788.256169,-1480.411884,-76303.111601,-740.205942
788.258718,592.164754,-75230.577904,-6217.729913
788.261267,4589.276840,-75230.577904,-5033.400406
788.263816,-2516.700203,-75230.577904,-2368.659014
788.266365,-740.205942,-74004.825107,-5033.400406
788.268914,-9770.718434,-74311.263306,-2960.823768
788.271463,-2812.782580,-73851.606007,-3404.947333
788.274012,8586.388927,-76609.549800,-7994.224174
788.276560,6809.894666,-75843.454302,-7994.224174
788.279109,-2368.659014,-74924.139704,-2960.823768
788.281658,-10066.800811,-71400.100414,-592.164754
788.284207,-7402.059420,-72779.072310,9326.594869
788.286756,-10658.965565,-73391.948708,4441.235652
788.289305,-10066.800811,-77528.864398,-5773.606348
788.291854,4737.318029,-76762.768900,6957.935855
788.294403,-15100.201217,-73238.729609,-2960.823768
788.296952,3849.070898,-73238.729609,5033.400406
788.299501,-18357.107362,-72012.976812,3256.906145
788.302049,-4589.276840,-74004.825107,4589.276840
788.304598,-11695.253884,-73698.386908,7254.018232
788.307147,-7105.977043,-75537.016103,1628.453072
788.309696,-2664.741391,-75383.797003,3701.029710
788.312245,-9770.718434,-75077.358804,2072.576638
788.314794,-8142.265362,-73085.510509,3108.864956
788.317343,-14063.912898,-74311.263306,2664.741391
788.319892,-11843.295072,-74770.920605,4885.359217
788.322441,-6365.771101,-75996.673402,1628.453072
788.324990,5625.565159,-76609.549800,2812.782580
788.327539,-592.164754,-74617.701505,7846.182985
788.330087,-30496.484810,-74617.701505,13175.665768
788.332640,-7994.224174,-75077.358804,-11547.212695
788.335192,-9622.677246,-74464.482406,6365.771101
788.337744,-14952.160028,-73851.606007,-12287.418637
788.340296,17468.860231,-74311.263306,5625.565159
788.342848,-22650.301825,-72166.195912,4293.194464
788.345400,-16876.695478,-75690.235202,5921.647536
788.347953,-6217.729913,-74924.139704,14804.118840
788.350505,-13471.748144,-75843.454302,5329.482782
788.353057,1480.411884,-74924.139704,2812.782580
788.355609,-12287.418637,-75230.577904,4145.153275
788.358161,-0.000000,-73698.386908,-2812.782580
788.360713,-10362.883188,-73545.167808,4441.235652
788.363266,-17468.860231,-72932.291410,3552.988522
788.365818,-2664.741391,-72472.634111,7402.059420
788.368370,-12879.583391,-74617.701505,9326.594869
788.370922,4441.235652,-75690.235202,2812.782580
788.373474,-6069.688724,-76149.892501,2516.700203
788.376026,-11399.171507,-73391.948708,3256.906145
788.378579,-8290.306550,-73085.510509,2220.617826
788.381131,-2812.782580,-75383.797003,-11251.130318
788.383683,9474.636058,-75383.797003,-12139.377449
788.386235,-1184.329507,-72472.634111,4293.194464
788.388787,1036.288319,-74158.044206,-3256.906145
788.391339,1924.535449,-75077.358804,4145.153275
788.393892,-10510.924376,-75996.673402,-1332.370696
788.396444,5033.400406,-76609.549800,-6809.894666
788.398996,-3256.906145,-74617.701505,-2072.576638
788.401548,-2960.823768,-75537.016103,-4589.276840
788.404100,1924.535449,-74004.825107,-4885.359217
788.406652,2960.823768,-74158.044206,-5625.565159
788.409205,1332.370696,-74158.044206,-6513.812290
788.411757,-888.247130,-75077.358804,-3256.906145
788.414309,148.041188,-74770.920605,-5181.441594
788.416861,7994.224174,-72625.853210,-2368.659014
788.419413,-2072.576638,-74617.701505,-1184.329507
788.421965,-11103.089130,-76762.768900,13323.706956
788.424518,-2516.700203,-75383.797003,-19097.313304
788.427070,10658.965565,-76609.549800,1924.535449
788.429622,-21169.889941,-71246.881314,3997.112087
788.432174,17912.983796,-73851.606007,-14359.995275
788.434729,-7698.141797,-72932.291410,3997.112087
788.437284,-3256.906145,-78907.836294,-9326.594869
788.439839,25759.166782,-75230.577904,-12435.459826
788.442394,-15248.242405,-73698.386908,-6957.935855
788.444949,4737.318029,-73545.167808,-11843.295072
788.447504,-3552.988522,-74617.701505,-740.205942
788.450059,3997.112087,-74464.482406,-8586.388927
788.452614,3552.988522,-75383.797003,-1184.329507
788.455169,-5329.482782,-74770.920605,-0.000000
788.457723,-3552.988522,-74311.263306,-4145.153275
788.460278,-5625.565159,-74004.825107,-1332.370696
788.462833,1036.288319,-74617.701505,-4737.318029
788.465388,9770.718434,-75996.673402,-7994.224174
788.467943,5181.441594,-75537.016103,-7994.224174
788.470498,-5773.606348,-74004.825107,-5477.523971
788.473053,-10362.883188,-72319.415011,296.082377
788.475608,-14508.036463,-72012.976812,1036.288319
788.478163,4293.194464,-75690.235202,-0.000000
788.480718,-18061.024985,-75537.016103,4885.359217
788.483273,4145.153275,-75537.016103,1924.535449
788.485828,-11547.212695,-74770.920605,2812.782580
788.488383,-4737.318029,-73851.606007,-444.123565
788.490938,-8586.388927,-73085.510509,4441.235652
788.493493,-12139.377449,-73085.510509,2368.659014
788.496048,-2960.823768,-74311.263306,5921.647536
788.498603,-5625.565159,-75230.577904,3256.906145
788.501158,-1184.329507,-75383.797003,3701.029710
788.503713,-10066.800811,-74770.920605,2812.782580
788.506267,-13027.624579,-72779.072310,2960.823768
788.508822,-11991.336260,-73545.167808,2368.659014
788.511377,-4293.194464,-73085.510509,2072.576638
788.513932,9326.594869,-76609.549800,3701.029710
788.516487,3552.988522,-76303.111601,1036.288319
788.519042,-18505.148550,-73851.606007,13175.665768
788.521597,-12879.583391,-74004.825107,-4885.359217
788.524152,-740.205942,-73391.948708,5329.482782
788.526707,-23686.590144,-73545.167808,-4293.194464
788.529262,14804.118840,-75537.016103,2516.700203
788.531817,-34937.720462,-75230.577904,8142.265362
788.534372,-9326.594869,-71246.881314,-2220.617826
788.536929,-148.041188,-74004.825107,15100.201217
788.539486,-20429.683999,-72472.634111,2516.700203
788.542044,4885.359217,-75537.016103,4293.194464
788.544601,-13175.665768,-75843.454302,296.082377
788.547158,1184.329507,-74924.139704,-4885.359217
788.549716,-17616.901420,-73698.386908,3404.947333
788.552273,-16284.530724,-72012.976812,6809.894666
788.554830,-2368.659014,-74617.701505,9178.553681
788.557388,-1480.411884,-75537.016103,4589.276840
788.559945,-444.123565,-76149.892501,444.123565
788.562502,-9770.718434,-74158.044206,5033.400406
788.565060,-12435.459826,-72166.195912,6069.688724
788.567617,-5625.565159,-74464.482406,-13323.706956
788.570174,9622.677246,-75690.235202,-12287.418637
788.572731,-7550.100608,-72472.634111,148.041188
788.575289,7846.182985,-74617.701505,-5773.606348
788.577846,-6957.935855,-74770.920605,3997.112087
788.580403,-3404.947333,-76149.892501,-4737.318029
788.582961,-2960.823768,-74924.139704,-4885.359217
788.585518,-3701.029710,-75077.358804,-1480.411884
788.588075,1776.494261,-74770.920605,-5181.441594
788.590633,-1480.411884,-74004.825107,-5181.441594
788.593190,4589.276840,-74924.139704,-7994.224174
788.595747,-1480.411884,-74770.920605,-5921.647536
788.598305,-296.082377,-74464.482406,-6661.853478
788.600862,3108.864956,-73545.167808,-3108.864956
788.603419,5033.400406,-71859.757712,-6513.812290
788.605976,7698.141797,-75230.577904,2368.659014
788.608534,9622.677246,-78448.178995,-5625.565159
788.611091,-6513.812290,-74617.701505,9770.718434
788.613648,5773.606348,-76456.330700,-14952.160028
788.616206,-148.041188,-73085.510509,8142.265362
788.618763,-23834.631332,-73391.948708,-2516.700203
788.621320,20873.807564,-75383.797003,-2368.659014
788.623878,-29460.196492,-76149.892501,-2516.700203
788.626435,14656.077652,-78448.178995,-12731.542202
788.628992,7994.224174,-75996.673402,-7402.059420
788.631550,-11991.336260,-72472.634111,-7846.182985
788.634107,2960.823768,-74158.044206,-5625.565159
788.636664,-888.247130,-74004.825107,-1480.411884
788.639224,-2516.700203,-75077.358804,-4589.276840
788.641783,-0.000000,-75690.235202,-2960.823768
788.644343,-7105.977043,-74464.482406,2812.782580
788.646903,9178.553681,-74770.920605,-7994.224174
788.649462,1184.329507,-75230.577904,-5181.441594
788.652022,1332.370696,-74770.920605,-13175.665768
788.654582,-2812.782580,-74617.701505,-4145.153275
788.657141,-11695.253884,-72932.291410,-148.041188
788.659701,-6661.853478,-72319.415011,3849.070898
788.662261,-5033.400406,-75077.358804,4885.359217
788.664820,-16580.613101,-76149.892501,6513.812290
788.667380,-1628.453072,-75537.016103,-444.123565
788.669939,-5181.441594,-75383.797003,592.164754
788.672499,-5181.441594,-73391.948708,-2812.782580
788.675059,-7254.018232,-73391.948708,-148.041188
788.677618,-11695.253884,-72012.976812,3701.029710
788.680178,-12287.418637,-73391.948708,7402.059420
788.682738,-2516.700203,-76303.111601,2812.782580
788.685297,-592.164754,-74924.139704,5477.523971
788.687857,-6661.853478,-74004.825107,-148.041188
788.690417,-13767.830521,-72012.976812,3404.947333
788.692976,-28571.949361,-75077.358804,3997.112087
788.695536,-1184.329507,-76303.111601,3997.112087
788.698095,-1184.329507,-77069.207099,9770.718434
788.700655,-12731.542202,-73391.948708,7698.141797
788.703215,-9918.759623,-73391.948708,-5033.400406
788.705774,-3552.988522,-75077.358804,-2812.782580
788.708334,-3552.988522,-72932.291410,1628.453072
788.710894,-14804.118840,-71706.538613,1332.370696
788.713453,-5181.441594,-74311.263306,3404.947333
788.716013,-592.164754,-72472.634111,1036.288319
788.718573,-5181.441594,-73391.948708,5773.606348
788.721132,-3552.988522,-74770.920605,5625.565159
788.723692,-10807.006753,-73698.386908,3552.988522
788.726251,-6809.894666,-74464.482406,2220.617826
788.728811,-3404.947333,-74464.482406,-4589.276840
788.731371,-11547.212695,-73545.167808,296.082377
788.733930,-12879.583391,-72779.072310,7402.059420
788.736490,-6957.935855,-74770.920605,8290.306550
788.739050,-296.082377,-75230.577904,5477.523971
788.741611,-9622.677246,-75077.358804,-1184.329507
788.744171,-6957.935855,-73851.606007,7846.182985
788.746732,-15840.407159,-74158.044206,444.123565
788.749293,7402.059420,-76149.892501,-6217.729913
788.751854,4589.276840,-75690.235202,-13471.748144
788.754415,7994.224174,-72319.415011,-3849.070898
788.756976,-1480.411884,-73238.729609,-1776.494261
788.759537,2812.782580,-74311.263306,2960.823768
788.762098,-6809.894666,-75383.797003,2368.659014
788.764658,-444.123565,-76456.330700,-5477.523971
788.767219,1184.329507,-74770.920605,-6069.688724
788.769780,-4145.153275,-74924.139704,-3849.070898
788.772341,2664.741391,-73085.510509,-8438.347739
788.774902,3997.112087,-74004.825107,-7846.182985
788.777463,592.164754,-75077.358804,-7994.224174
788.780024,1036.288319,-75077.358804,-5773.606348
788.782585,-5477.523971,-75690.235202,1480.411884
788.785146,-12879.583391,-74158.044206,-4293.194464
788.787706,-6661.853478,-75230.577904,-5033.400406
788.790267,12139.377449,-74770.920605,-11991.336260
788.792828,-4145.153275,-73851.606007,-888.247130
788.795389,3849.070898,-75537.016103,-1776.494261
788.797950,8290.306550,-74311.263306,8586.388927
788.800511,-9622.677246,-75537.016103,-740.205942
788.803072,11547.212695,-74617.701505,-14508.036463
788.805633,-7846.182985,-75230.577904,-5625.565159
788.808193,-5329.482782,-74770.920605,-12731.542202
788.810754,4589.276840,-74617.701505,-9918.759623
788.813315,-6809.894666,-74158.044206,-2220.617826
788.815876,888.247130,-74464.482406,-6069.688724
788.818437,3552.988522,-74617.701505,-1924.535449
788.820998,-10658.965565,-75996.673402,888.247130
788.823559,-148.041188,-74617.701505,-4145.153275
788.826120,592.164754,-74924.139704,-6513.812290
788.828680,8142.265362,-75537.016103,-10362.883188
788.831241,-444.123565,-73698.386908,-6365.771101
788.833802,-9326.594869,-72779.072310,-444.123565
788.836363,-2664.741391,-74770.920605,5625.565159
788.838924,-9918.759623,-74924.139704,7105.977043
788.841485,-7402.059420,-75996.673402,-2368.659014
788.844047,-3256.906145,-74311.263306,9622.677246
788.846609,-13471.748144,-73698.386908,444.123565
788.849172,7402.059420,-74004.825107,740.205942
788.851734,-14804.118840,-74311.263306,1332.370696
788.854296,-6217.729913,-73545.167808,-1036.288319
788.856858,-10955.047942,-73391.948708,7994.224174
788.859421,-9474.636058,-74617.701505,6513.812290
788.861983,-296.082377,-75077.358804,3849.070898
788.864545,-4737.318029,-75383.797003,5773.606348
788.867107,-13323.706956,-74158.044206,-1628.453072
788.869670,-12287.418637,-72779.072310,3108.864956
788.872232,-13619.789333,-74004.825107,4145.153275
788.874794,-11251.130318,-77069.207099,7846.182985
788.877357,-2220.617826,-73851.606007,-9770.718434
788.879919,740.205942,-76303.111601,6365.771101
788.882481,-25907.207970,-73085.510509,2220.617826
788.885043,-6069.688724,-74004.825107,-12435.459826
788.887606,4589.276840,-73545.167808,10955.047942
788.890168,-20873.807564,-71859.757712,296.082377
788.892730,8142.265362,-75537.016103,4293.194464
788.895292,-2960.823768,-74770.920605,8882.471304
788.897855,-7402.059420,-74311.263306,3256.906145
788.900417,-4589.276840,-73851.606007,6809.894666
788.902979,-7550.100608,-74617.701505,-444.123565
788.905541,-6809.894666,-73391.948708,-2812.782580
788.908104,-16136.489536,-73238.729609,5625.565159
788.910666,-6217.729913,-73391.948708,3404.947333
788.913228,-2812.782580,-75077.358804,6809.894666
788.915790,-3552.988522,-75383.797003,148.041188
788.918353,-10362.883188,-74004.825107,-1036.288319
788.920915,-11547.212695,-72932.291410,8438.347739
788.923477,-10510.924376,-74158.044206,-1776.494261
788.926040,10066.800811,-76149.892501,-9178.553681
788.928602,-10066.800811,-74617.701505,-1332.370696
788.931164,6513.812290,-74464.482406,-9474.636058
788.933726,-7254.018232,-73545.167808,-888.247130
788.936289,-3552.988522,-75077.358804,-3256.906145
788.938851,1628.453072,-74924.139704,-5921.647536
788.941413,-3552.988522,-75077.358804,-1776.494261
788.943975,5773.606348,-74617.701505,-6069.688724
788.946539,444.123565,-74924.139704,-1480.411884
788.949103,-3404.947333,-74464.482406,-4145.153275
788.951666,5033.400406,-74311.263306,-8438.347739
788.954230,-592.164754,-75383.797003,-4441.235652
788.956793,-0.000000,-72472.634111,-8290.306550
788.959357,13323.706956,-75077.358804,-296.082377
788.961921,7254.018232,-72319.415011,-5625.565159
788.964484,-12287.418637,-75996.673402,12287.418637
788.967048,-9030.512492,-74004.825107,-14359.995275
788.969611,444.123565,-72779.072310,-1776.494261
788.972175,-6217.729913,-73545.167808,-6513.812290
788.974739,888.247130,-75843.454302,740.205942
788.977302,-11843.295072,-74464.482406,-6661.853478
788.979866,9918.759623,-76762.768900,-7994.224174
788.982429,-1184.329507,-74464.482406,-11991.336260
788.984993,5625.565159,-75843.454302,-9622.677246
788.987557,-1776.494261,-74311.263306,-2368.659014
788.990120,592.164754,-74464.482406,-2812.782580
788.992684,-7698.141797,-75843.454302,-3552.988522
788.995247,1036.288319,-76609.549800,-740.205942
788.997811,-148.041188,-75996.673402,-3404.947333
789.000374,6217.729913,-75690.235202,-10955.047942
789.002938,3997.112087,-74311.263306,-9326.594869
789.005502,-7254.018232,-72932.291410,-6957.935855
789.008065,740.205942,-72779.072310,148.041188
789.010629,-15692.365970,-72166.195912,5181.441594
789.013192,4293.194464,-76456.330700,3997.112087
789.015756,-19245.354492,-74464.482406,12879.583391
789.018320,-3404.947333,-75537.016103,4145.153275
789.020883,-8142.265362,-75383.797003,888.247130
789.023447,-5033.400406,-74311.263306,-6661.853478
789.026010,-3701.029710,-72319.415011,-2220.617826
789.028574,-15248.242405,-71706.538613,4293.194464
789.031138,-13767.830521,-72319.415011,6217.729913
789.033701,-6365.771101,-75843.454302,7550.100608
789.036265,-4885.359217,-77069.207099,4737.318029
789.038828,-740.205942,-76609.549800,5329.482782
789.041392,-22798.343014,-75230.577904,1924.535449
789.043956,-10807.006753,-75230.577904,6217.729913
789.046519,-4737.318029,-70787.224015,-9030.512492
789.049084,11547.212695,-77222.426198,3552.988522
789.051648,-22798.343014,-73085.510509,4589.276840
789.054212,5921.647536,-75843.454302,-6069.688724
789.056776,-21169.889941,-75996.673402,16876.695478
789.059340,-30348.443622,-75537.016103,-5477.523971
789.061904,3404.947333,-74004.825107,11251.130318
789.064468,-24722.878463,-73238.729609,9770.718434
789.067032,1628.453072,-74004.825107,3108.864956
789.069596,-15100.201217,-77222.426198,11399.171507
789.072161,-9770.718434,-73698.386908,-1036.288319
789.074725,-8438.347739,-74464.482406,2072.576638
789.077289,-19541.436869,-71859.757712,1184.329507
789.079853,-1628.453072,-73238.729609,3849.070898
789.082417,-5773.606348,-75230.577904,3256.906145
789.084981,-0.000000,-75690.235202,-2368.659014
789.087545,-1776.494261,-76762.768900,-3701.029710
789.090109,-18505.148550,-73085.510509,7550.100608
789.092673,-12139.377449,-72625.853210,9326.594869
789.095237,3108.864956,-73851.606007,-7402.059420
789.097801,9030.512492,-77375.645298,-7698.141797
789.100365,2072.576638,-73851.606007,-7550.100608
789.102929,-8438.347739,-74464.482406,-8142.265362
789.105493,4293.194464,-75383.797003,-3404.947333
789.108057,-10658.965565,-72472.634111,-0.000000
789.110621,3997.112087,-74924.139704,-7550.100608
789.113185,-1036.288319,-74004.825107,-1480.411884
789.115749,-2516.700203,-77528.864398,-3108.864956
789.118313,5921.647536,-74617.701505,-5625.565159
789.120877,2220.617826,-73851.606007,-2368.659014
789.123442,-5033.400406,-74158.044206,-9474.636058
789.126006,-5181.441594,-75996.673402,-3701.029710
789.128570,-2664.741391,-74924.139704,-2072.576638
789.131134,3256.906145,-74924.139704,1776.494261
789.133698,-21169.889941,-72166.195912,3849.070898
789.136262,37306.379477,-78907.836294,-16432.571912
789.138826,14656.077652,-76456.330700,16284.530724
789.141390,-34345.555709,-73391.948708,7994.224174
789.143954,45744.727216,-72625.853210,-15396.283594
789.146518,-21169.889941,-74617.701505,2812.782580
789.149082,18801.230927,-74158.044206,-24130.713709
789.151647,-5329.482782,-76303.111601,-1924.535449
789.154211,1036.288319,-72166.195912,-18209.066173
789.156776,1036.288319,-73851.606007,2072.576638
789.159340,-9178.553681,-75383.797003,4293.194464
789.161905,2664.741391,-74311.263306,-4589.276840
789.164470,-4293.194464,-76762.768900,592.164754
789.167034,6365.771101,-76149.892501,-11103.089130
789.169599,6069.688724,-75996.673402,-9178.553681
789.172164,-5033.400406,-72932.291410,-6661.853478
789.174728,-5625.565159,-71246.881314,-4293.194464
789.177293,-1480.411884,-73238.729609,2516.700203
789.179857,-7698.141797,-74158.044206,8882.471304
789.182422,-9326.594869,-75843.454302,3701.029710
789.184987,-5329.482782,-74617.701505,13915.871710
789.187551,-12583.501014,-75690.235202,4145.153275
789.190116,3256.906145,-75077.358804,-1924.535449
789.192681,-8882.471304,-74464.482406,-2960.823768
789.195245,-11991.336260,-72166.195912,-2516.700203
789.197810,-9030.512492,-72779.072310,5033.400406
789.200374,-13915.871710,-73238.729609,8438.347739
789.202939,3404.947333,-76456.330700,6069.688724
789.205504,-3701.029710,-76149.892501,6661.853478
789.208068,-296.082377,-74924.139704,1480.411884
789.210633,-12731.542202,-72932.291410,3997.112087
789.213198,-17764.942608,-75690.235202,6809.894666
789.215762,14063.912898,-74770.920605,9178.553681
789.218327,-33309.267390,-72166.195912,-740.205942
789.220891,31236.690752,-74770.920605,-16432.571912
789.223456,-29608.237680,-75077.358804,26203.290347
789.226021,-27683.702231,-71706.538613,-18357.107362
789.228585,22058.137072,-74924.139704,15396.283594
789.231150,-37306.379477,-70787.224015,6809.894666
789.233715,11843.295072,-74617.701505,-4145.153275
789.236281,-16580.613101,-79061.055394,15544.324782
789.238846,-10807.006753,-74004.825107,-10510.924376
789.241412,-3997.112087,-75383.797003,5329.482782
789.243977,-29460.196492,-70174.347617,8586.388927
789.246542,4293.194464,-72319.415011,1036.288319
789.249108,-8142.265362,-76303.111601,7846.182985
789.251673,3849.070898,-74924.139704,-8882.471304
789.254239,-7550.100608,-75843.454302,-1924.535449
789.256804,-17320.819043,-72779.072310,11695.253884
789.259370,-11991.336260,-73851.606007,4293.194464
789.261935,13619.789333,-76915.987999,-3108.864956
789.264501,-6365.771101,-74004.825107,-4737.318029
789.267066,17616.901420,-75077.358804,-13915.871710
789.269631,-15100.201217,-74158.044206,-5329.482782
789.272197,10066.800811,-75383.797003,-10214.842000
789.274762,1184.329507,-73391.948708,-1924.535449
789.277328,-7994.224174,-74617.701505,-1776.494261
789.279893,9770.718434,-75383.797003,-3404.947333
789.282459,-5329.482782,-77222.426198,-148.041188
789.285024,2516.700203,-74770.920605,-8882.471304
789.287589,592.164754,-73391.948708,-5033.400406
789.290155,-2516.700203,-73238.729609,-7846.182985
789.292720,-3404.947333,-73851.606007,-8290.306550
789.295286,-2368.659014,-77069.207099,8438.347739
789.297851,-25315.043216,-70787.224015,-6365.771101
789.300417,37010.297100,-79214.274493,-9918.759623
789.302982,-40415.244433,-73085.510509,7994.224174
789.305547,25167.002028,-75230.577904,-23390.507767
789.308113,1332.370696,-74617.701505,10362.883188
789.310678,-20133.601622,-74004.825107,-1628.453072
789.313244,34937.720462,-73698.386908,-19393.395680
789.315809,-19985.560434,-75843.454302,-2368.659014
789.318375,13767.830521,-72166.195912,-20577.725188
789.320940,-1332.370696,-74464.482406,4589.276840
789.323505,-4145.153275,-72472.634111,-2220.617826
789.326071,3404.947333,-74770.920605,2072.576638
789.328636,-10066.800811,-76303.111601,1480.411884
789.331202,6217.729913,-76303.111601,-13619.789333
789.333767,7550.100608,-76609.549800,-9178.553681
789.336333,-10066.800811,-71400.100414,-8734.430116
789.338898,-1480.411884,-70940.443115,-1332.370696
789.341463,-7402.059420,-72472.634111,3404.947333
789.344029,-6365.771101,-74158.044206,9326.594869
789.346594,-12435.459826,-76149.892501,6217.729913
789.349160,-1480.411884,-76149.892501,5921.647536
789.351725,-12583.501014,-76303.111601,4589.276840
789.354290,-3108.864956,-74770.920605,-5477.523971
789.356856,-6661.853478,-72779.072310,-1924.535449
789.359421,-11103.089130,-71706.538613,-148.041188
789.361986,-9326.594869,-73085.510509,4441.235652
789.364552,-10955.047942,-74464.482406,7105.977043
789.367117,-2220.617826,-76456.330700,6365.771101
789.369683,-5033.400406,-76149.892501,6957.935855
789.372248,-6957.935855,-73545.167808,1628.453072
789.374813,3997.112087,-74311.263306,2960.823768
789.377379,-17764.942608,-70327.566716,5033.400406
789.379944,-11399.171507,-75843.454302,-5329.482782
789.382510,2812.782580,-71400.100414,5033.400406
789.385075,-17616.901420,-77069.207099,296.082377
789.387640,3997.112087,-77069.207099,-5625.565159
789.390206,-16432.571912,-72625.853210,11547.212695
789.392771,-22354.219448,-74464.482406,7254.018232
789.395336,-3552.988522,-74004.825107,16728.654289
789.397902,-14508.036463,-78141.740796,7402.059420
789.400467,1480.411884,-76149.892501,740.205942
789.403033,-18801.230927,-75537.016103,4737.318029
789.405598,-14359.995275,-70174.347617,5477.523971
789.408163,-5181.441594,-74158.044206,8438.347739
789.410729,-2960.823768,-73698.386908,4441.235652
789.413294,888.247130,-75996.673402,-1480.411884
789.415860,-13915.871710,-75690.235202,-296.082377
789.418425,-13323.706956,-73391.948708,7254.018232
789.420990,-13619.789333,-74617.701505,7698.141797
789.423556,11399.171507,-76609.549800,-4293.194464
789.426121,-2072.576638,-74004.825107,-0.000000
789.428686,5773.606348,-74924.139704,-10510.924376
789.431252,-3701.029710,-75383.797003,-8586.388927
789.433817,-2368.659014,-75230.577904,-9326.594869
789.436383,1628.453072,-73698.386908,-5181.441594
789.438948,-10214.842000,-74158.044206,1332.370696
789.441514,8290.306550,-74924.139704,-3404.947333
789.444079,2368.659014,-76456.330700,-444.123565
789.446645,-4293.194464,-76609.549800,-8586.388927
789.449211,13619.789333,-74464.482406,-7550.100608
789.451776,-1628.453072,-73851.606007,-5921.647536
789.454342,-4293.194464,-71553.319513,-12731.542202
789.456907,-4885.359217,-74004.825107,-10066.800811
789.459473,7698.141797,-75077.358804,1628.453072
789.462039,9474.636058,-78294.959896,2960.823768
789.464604,-8734.430116,-76456.330700,2368.659014
789.467170,-1628.453072,-75077.358804,-8882.471304
789.469735,-2664.741391,-74311.263306,-740.205942
789.472301,-4293.194464,-75230.577904,-6957.935855
789.474867,10066.800811,-74158.044206,-9770.718434
789.477432,-7254.018232,-74770.920605,-9178.553681
789.479998,10955.047942,-75996.673402,-9918.759623
789.482563,-3849.070898,-73238.729609,-592.164754
789.485129,-3701.029710,-74617.701505,1776.494261
789.487695,592.164754,-75077.358804,-3256.906145
789.490260,-148.041188,-76915.987999,-7550.100608
789.492826,8734.430116,-77528.864398,-14359.995275
789.495391,-7402.059420,-74311.263306,-8438.347739
789.497957,-4737.318029,-72319.415011,-740.205942
789.500523,-6513.812290,-71246.881314,5181.441594
789.503088,-8290.306550,-73238.729609,9326.594869
789.505654,-16728.654289,-76456.330700,7994.224174
789.508219,-2072.576638,-76149.892501,11251.130318
789.510785,-13915.871710,-77222.426198,296.082377
789.513351,6661.853478,-75077.358804,-2368.659014
789.515916,-13471.748144,-72932.291410,-0.000000
789.518482,-8290.306550,-71859.757712,444.123565
789.521047,-10658.965565,-72166.195912,3701.029710
789.523613,-10955.047942,-74924.139704,7402.059420
789.526179,1332.370696,-74770.920605,4145.153275
789.528744,-7254.018232,-76456.330700,6217.729913
789.531310,-12879.583391,-76149.892501,6069.688724
789.533875,-19541.436869,-72932.291410,-888.247130
789.536441,-2368.659014,-74617.701505,-6069.688724
789.539007,8586.388927,-74311.263306,3849.070898
789.541572,-24130.713709,-73545.167808,9918.759623
789.544138,2960.823768,-74004.825107,-14656.077652
789.546704,-3404.947333,-75996.673402,14359.995275
789.549270,-36418.132346,-71859.757712,4293.194464
789.551836,7105.977043,-74004.825107,14656.077652
789.554402,-15988.448347,-74464.482406,11103.089130
789.556968,-3256.906145,-76915.987999,4441.235652
789.559534,-12731.542202,-76456.330700,4145.153275
789.562100,-15988.448347,-73238.729609,5773.606348
789.564665,-12731.542202,-72472.634111,6513.812290
789.567231,-5181.441594,-73238.729609,4145.153275
789.569797,3404.947333,-74311.263306,-3256.906145
789.572363,-2072.576638,-75996.673402,-6069.688724
789.574929,-18357.107362,-72472.634111,7254.018232
789.577495,-15840.407159,-73545.167808,5625.565159
789.580061,10807.006753,-76456.330700,-1628.453072
789.582627,2812.782580,-76149.892501,-5329.482782
789.585193,10658.965565,-74004.825107,-6661.853478
789.587758,-8290.306550,-74158.044206,-7846.182985
789.590324,4589.276840,-74464.482406,-9770.718434
789.592890,-13471.748144,-74004.825107,-2664.741391
789.595456,-444.123565,-74924.139704,-4145.153275
789.598022,5033.400406,-74004.825107,-296.082377
789.600588,-6069.688724,-77375.645298,1628.453072
789.603154,4145.153275,-75996.673402,-6217.729913
789.605720,-4145.153275,-75690.235202,-4589.276840
789.608286,-5033.400406,-75690.235202,-7105.977043
789.610851,-6069.688724,-72625.853210,-5625.565159
789.613417,-8290.306550,-71093.662214,-1628.453072
789.615983,-296.082377,-73391.948708,-5329.482782
789.618549,3552.988522,-75690.235202,2220.617826
789.621115,-24722.878463,-77835.302597,-4737.318029
789.623681,17468.860231,-78907.836294,-6365.771101
789.626247,-7994.224174,-74004.825107,-6513.812290
789.628813,1480.411884,-75690.235202,-6957.935855
789.631379,740.205942,-73851.606007,-6513.812290
789.633945,-9178.553681,-73545.167808,-6957.935855
789.636510,6957.935855,-75996.673402,-9918.759623
789.639076,-6217.729913,-74924.139704,1332.370696
789.641642,740.205942,-74004.825107,-444.123565
789.644179,3997.112087,-75383.797003,-2220.617826
789.646716,740.205942,-76456.330700,-8438.347739
789.649253,5329.482782,-75843.454302,-13175.665768
789.651790,-6661.853478,-73391.948708,-4737.318029
789.654327,-296.082377,-71859.757712,3108.864956
789.656863,-12139.377449,-71093.662214,3256.906145
789.659400,-296.082377,-74617.701505,8290.306550
789.661937,-27091.537477,-74770.920605,14063.912898
789.664474,3404.947333,-76303.111601,-0.000000
789.667011,-12583.501014,-77222.426198,4589.276840
789.669548,148.041188,-75537.016103,-10066.800811
789.672085,-2516.700203,-72319.415011,148.041188
789.674622,-22206.178260,-71246.881314,7402.059420
789.677159,-8586.388927,-72472.634111,5033.400406
789.679695,-10510.924376,-75077.358804,11251.130318
789.682232,2220.617826,-77222.426198,3997.112087
789.684769,8142.265362,-76303.111601,3552.988522
789.687306,-20429.683999,-73238.729609,-444.123565
789.689843,-20281.642811,-72625.853210,-148.041188
789.692380,2960.823768,-72472.634111,-4293.194464
789.694917,-3552.988522,-74770.920605,3701.029710
789.697454,4293.194464,-75077.358804,888.247130
789.699990,-11103.089130,-73238.729609,1036.288319
789.702527,-7105.977043,-74158.044206,4293.194464
789.705064,-6661.853478,-70480.785816,7402.059420
789.707601,-12731.542202,-73851.606007,12583.501014
789.710138,-740.205942,-75843.454302,5181.441594
789.712675,-8586.388927,-77222.426198,1332.370696
789.715212,-11399.171507,-74464.482406,5033.400406
789.717749,-14656.077652,-73085.510509,4145.153275
789.720285,-2516.700203,-72319.415011,4589.276840
789.722822,-3552.988522,-73698.386908,-2516.700203
789.725359,740.205942,-75230.577904,-4441.235652
789.727896,-12139.377449,-71859.757712,6661.853478
789.730433,-15988.448347,-75077.358804,4145.153275
789.732970,11991.336260,-77835.302597,-5921.647536
789.735507,-5477.523971,-75843.454302,-296.082377
789.738044,11103.089130,-73391.948708,-8586.388927
789.740581,-7105.977043,-73698.386908,-4145.153275
789.743117,6069.688724,-74770.920605,-12435.459826
789.745660,296.082377,-73698.386908,-7402.059420
789.748202,-3997.112087,-74464.482406,-5773.606348
789.750744,8586.388927,-73238.729609,-740.205942
789.753286,-4145.153275,-75996.673402,1628.453072
789.755829,6365.771101,-75843.454302,-5625.565159
789.758371,-9622.677246,-75230.577904,-5921.647536
789.760913,888.247130,-76456.330700,-10066.800811
789.763455,1776.494261,-72319.415011,-10510.924376
789.765997,-13915.871710,-70940.443115,-10066.800811
789.768540,26351.331535,-73698.386908,-9918.759623
789.771082,-27091.537477,-75383.797003,18209.066173
789.773624,5477.523971,-77528.864398,-19837.519246
789.776166,17764.942608,-75230.577904,-4737.318029
789.778708,-9474.636058,-73545.167808,-14063.912898
789.781251,33901.432144,-72625.853210,-16284.530724
789.783793,-10362.883188,-74617.701505,4885.359217
789.786335,148.041188,-72319.415011,-18653.189738
789.788877,3256.906145,-76609.549800,1776.494261
789.791420,-7550.100608,-74004.825107,-4885.359217
789.793962,12287.418637,-75230.577904,-4145.153275
789.796504,-3997.112087,-75843.454302,-3997.112087
789.799046,8586.388927,-74311.263306,-14211.954086
789.801588,-7105.977043,-74311.263306,-6365.771101
789.804131,-2960.823768,-73851.606007,592.164754
789.806673,-9030.512492,-72932.291410,1628.453072
789.809215,-888.247130,-73085.510509,6217.729913
789.811757,-21021.848753,-73391.948708,14508.036463
789.814300,1332.370696,-75077.358804,7698.141797
789.816842,-16876.695478,-75843.454302,3552.988522
789.819384,4145.153275,-76915.987999,-8586.388927
789.821926,-2516.700203,-72319.415011,-5329.482782
789.824468,-20429.683999,-71553.319513,2960.823768
789.827011,-10658.965565,-71400.100414,6513.812290
789.829553,-12583.501014,-75077.358804,10510.924376
789.832095,-1776.494261,-75996.673402,7105.977043
789.834637,9770.718434,-75077.358804,2664.741391
789.837179,-1036.288319,-75843.454302,3997.112087
789.839722,1480.411884,-74617.701505,-4293.194464
789.842264,-14952.160028,-72012.976812,11399.171507
789.844806,-15840.407159,-74158.044206,4737.318029
789.847353,-1924.535449,-74924.139704,-1924.535449
789.849900,-10510.924376,-75843.454302,2812.782580
789.852447,-11991.336260,-74004.825107,7550.100608
789.854994,-6217.729913,-72932.291410,11843.295072
789.857541,-9326.594869,-71093.662214,11991.336260
789.860088,-16728.654289,-74924.139704,2960.823768
789.862635,-6513.812290,-75843.454302,1924.535449
789.865182,-8290.306550,-75690.235202,888.247130
789.867729,-6069.688724,-74617.701505,3256.906145
789.870276,-3256.906145,-73085.510509,1776.494261
789.872823,-5921.647536,-72779.072310,-444.123565
789.875370,-13767.830521,-72625.853210,6513.812290
789.877917,-10362.883188,-73851.606007,7402.059420
789.880464,592.164754,-76915.987999,-3701.029710
789.883011,11843.295072,-78601.398095,-8882.471304
789.885558,-3849.070898,-73085.510509,-1332.370696
789.888105,2812.782580,-73545.167808,-9326.594869
789.890652,-3108.864956,-73238.729609,-5329.482782
789.893200,-5329.482782,-74464.482406,-9474.636058
789.895747,10066.800811,-75230.577904,-13175.665768
789.898294,-4589.276840,-73851.606007,-888.247130
789.900841,6809.894666,-75383.797003,-5625.565159
789.903388,-2368.659014,-74617.701505,1480.411884
789.905935,740.205942,-75690.235202,-5181.441594
789.908482,6661.853478,-73391.948708,-8734.430116
789.911029,10510.924376,-77222.426198,-4145.153275
789.913576,-592.164754,-72012.976812,-888.247130
789.916123,-13915.871710,-73545.167808,5921.647536
789.918670,15692.365970,-75230.577904,-2664.741391
789.921217,-10510.924376,-76149.892501,7105.977043
789.923764,-2664.741391,-76303.111601,-19097.313304
789.926311,10362.883188,-77222.426198,-3849.070898
789.928858,-14359.995275,-74617.701505,-11991.336260
789.931405,14359.995275,-74004.825107,-9474.636058
789.933952,-2220.617826,-74311.263306,592.164754
789.936499,-1924.535449,-73545.167808,-10510.924376
789.939046,-148.041188,-75690.235202,296.082377
789.941593,888.247130,-75843.454302,-6513.812290
789.944140,4885.359217,-76609.549800,-6957.935855
789.946687,-0.000000,-74924.139704,-6957.935855
789.949238,-5033.400406,-73698.386908,-6957.935855
789.951789,296.082377,-73391.948708,2368.659014
789.954341,-12287.418637,-72472.634111,-888.247130
789.956892,-592.164754,-75077.358804,5921.647536
789.959443,-23834.631332,-73238.729609,13323.706956
789.961994,2664.741391,-74770.920605,4885.359217
789.964546,-9918.759623,-75230.577904,6809.894666
789.967097,-3256.906145,-74770.920605,-10066.800811
789.969648,-1036.288319,-73085.510509,-3404.947333
789.972199,-22650.301825,-72472.634111,4441.235652
789.974751,-11695.253884,-72625.853210,3701.029710
789.977302,-4885.359217,-74770.920605,11547.212695
789.979853,-12287.418637,-76915.987999,7698.141797
789.982404,-2220.617826,-79061.055394,11991.336260
789.984956,-11843.295072,-74311.263306,-7550.100608
789.987507,-7846.182985,-74617.701505,5773.606348
789.990058,-14508.036463,-72932.291410,6513.812290
789.992609,-7846.182985,-72012.976812,2368.659014
789.995161,2220.617826,-77222.426198,-296.082377
789.997712,-13027.624579,-74924.139704,3404.947333
790.000263,-22354.219448,-76456.330700,10510.924376
790.002814,-11251.130318,-72012.976812,15396.283594
790.005366,-14063.912898,-74158.044206,13767.830521
790.007917,-9326.594869,-74770.920605,8142.265362
790.010468,-9030.512492,-75843.454302,3108.864956
790.013019,-5921.647536,-75690.235202,-1332.370696
790.015571,-4293.194464,-73391.948708,-148.041188
790.018122,-3701.029710,-73391.948708,740.205942
790.020673,-16136.489536,-71553.319513,6217.729913
790.023224,-7994.224174,-71859.757712,10214.842000
790.025776,-14063.912898,-75537.016103,5773.606348
790.028327,14211.954086,-79061.055394,-12879.583391
790.030878,-7402.059420,-74770.920605,-1924.535449
790.033429,6661.853478,-74617.701505,-9326.594869
790.035981,-8882.471304,-73391.948708,-3849.070898
790.038532,-592.164754,-74617.701505,-7994.224174
790.041083,2664.741391,-74770.920605,-7550.100608
790.043634,-4589.276840,-75690.235202,-6809.894666
790.046186,12139.377449,-75230.577904,-444.123565
790.048737,-5033.400406,-75690.235202,3404.947333
790.051290,-2220.617826,-74004.825107,-4589.276840
790.053844,148.041188,-74311.263306,-7105.977043
790.056399,2960.823768,-76303.111601,-8438.347739
790.058953,-10362.883188,-72779.072310,-12879.583391
790.061507,16580.613101,-72932.291410,-7550.100608
790.064061,-17172.777854,-71246.881314,1924.535449
790.066616,6661.853478,-76149.892501,-12879.583391
790.069170,9622.677246,-76303.111601,-740.205942
790.071724,-2220.617826,-75230.577904,-17468.860231
790.074278,24574.837274,-74617.701505,-11991.336260
790.076833,-12879.583391,-73545.167808,-6217.729913
790.079387,16876.695478,-73545.167808,-9474.636058
790.081941,-12139.377449,-74617.701505,4293.194464
790.084495,1184.329507,-76303.111601,-5625.565159
790.087050,7402.059420,-75843.454302,-7550.100608
790.089604,1480.411884,-76303.111601,-4589.276840
790.092158,-1776.494261,-73085.510509,-7698.141797
790.094712,-9178.553681,-72932.291410,-888.247130
790.097267,148.041188,-73545.167808,-1036.288319
790.099821,-17616.901420,-74464.482406,5625.565159
790.102375,-3997.112087,-75843.454302,2368.659014
790.104929,-5181.441594,-74004.825107,16284.530724
790.107484,-15396.283594,-75996.673402,4885.359217
790.110038,6809.894666,-75077.358804,740.205942
790.112592,-10362.883188,-74617.701505,-1184.329507
790.115146,-6513.812290,-73698.386908,-2664.741391
790.117701,-18653.189738,-72319.415011,7105.977043
790.120255,-12731.542202,-72779.072310,4293.194464
790.122809,-8438.347739,-74924.139704,9178.553681
790.125363,-9178.553681,-78294.959896,9622.677246
790.127918,-9326.594869,-75690.235202,1036.288319
790.130472,-14656.077652,-75690.235202,740.205942
790.133026,-5181.441594,-71706.538613,-1776.494261
790.135580,-16284.530724,-71246.881314,9622.677246
790.138135,-148.041188,-72932.291410,-10362.883188
790.140689,8882.471304,-75077.358804,-1628.453072
790.143243,-29164.114115,-77069.207099,14359.995275
790.145797,-11251.130318,-73238.729609,7105.977043
790.148352,-10658.965565,-74158.044206,17764.942608
790.150906,-22058.137072,-72932.291410,6809.894666
790.153463,-1184.329507,-75230.577904,8586.388927
790.156020,-7698.141797,-76609.549800,888.247130
790.158577,740.205942,-75230.577904,-2960.823768
790.161134,-7550.100608,-73391.948708,-0.000000
790.163691,-17024.736666,-71093.662214,5921.647536
790.166248,-9030.512492,-70480.785816,13027.624579
790.168805,-9030.512492,-75537.016103,4737.318029
790.171362,22798.343014,-79980.369991,-9178.553681
790.173919,-11843.295072,-76149.892501,-1332.370696
790.176476,13915.871710,-73851.606007,-14359.995275
790.179033,-5329.482782,-72012.976812,-5477.523971
790.181590,-4293.194464,-73698.386908,-7402.059420
790.184147,5773.606348,-73698.386908,-9918.759623
790.186704,-4293.194464,-75996.673402,-4441.235652
790.189261,10955.047942,-76303.111601,-4885.359217
790.191818,-7402.059420,-75537.016103,740.205942
790.194375,-3849.070898,-74004.825107,-3849.070898
790.196932,3552.988522,-72319.415011,-1924.535449
790.199489,-6661.853478,-77528.864398,1184.329507
790.202046,-4145.153275,-73085.510509,-20429.683999
790.204603,3997.112087,-74617.701505,9178.553681
790.207160,-3404.947333,-73698.386908,3552.988522
790.209717,-4145.153275,-76456.330700,148.041188
790.212274,-1924.535449,-77682.083497,-9178.553681
790.214831,1184.329507,-77375.645298,-7402.059420
790.217388,-888.247130,-73851.606007,-13323.706956
790.219945,-0.000000,-73698.386908,-9474.636058
790.222502,-8290.306550,-73698.386908,-4145.153275
790.225059,-592.164754,-74158.044206,-1776.494261
790.227616,6661.853478,-75996.673402,-5773.606348
790.230173,7846.182985,-77222.426198,-6513.812290
790.232730,-0.000000,-75383.797003,-9030.512492
790.235287,-5181.441594,-72779.072310,-2664.741391
790.237844,-592.164754,-71553.319513,-296.082377
790.240401,-13619.789333,-72932.291410,-592.164754
790.242958,3256.906145,-74617.701505,1184.329507
790.245515,-23834.631332,-74617.701505,11991.336260
790.248072,-296.082377,-73851.606007,9770.718434
790.250629,-13767.830521,-75230.577904,8438.347739
790.253186,-888.247130,-75230.577904,-5329.482782
790.255716,-2664.741391,-72472.634111,-3997.112087
790.258247,-17024.736666,-73085.510509,-444.123565
790.260777,-9474.636058,-70940.443115,3849.070898
790.263307,-19541.436869,-73085.510509,10807.006753
790.265838,-4589.276840,-75077.358804,6217.729913
790.268368,8734.430116,-78754.617194,11991.336260
790.270898,592.164754,-74004.825107,-1776.494261
790.273429,-13471.748144,-72625.853210,3997.112087
790.275959,-19541.436869,-72012.976812,11103.089130
790.278489,-9474.636058,-73238.729609,4293.194464
790.281020,-1184.329507,-74311.263306,-1332.370696
790.283550,-1924.535449,-75230.577904,6513.812290
790.286080,-4885.359217,-74770.920605,6957.935855
790.288611,-12731.542202,-72012.976812,9918.759623
790.291141,-18357.107362,-72625.853210,8586.388927
790.293671,-6365.771101,-74004.825107,5921.647536
790.296202,-2516.700203,-76609.549800,-1036.288319
790.298732,1332.370696,-76456.330700,-5477.523971
790.301262,-3552.988522,-75230.577904,-2368.659014
790.303793,-19245.354492,-71706.538613,7698.141797
790.306323,-15396.283594,-70174.347617,12287.418637
790.308853,-5625.565159,-75383.797003,11547.212695
790.311384,13323.706956,-79367.493593,-10362.883188
790.313914,-888.247130,-75843.454302,-6217.729913
790.316444,2516.700203,-75843.454302,-11399.171507
790.318975,-8882.471304,-72012.976812,-7550.100608
790.321505,148.041188,-72472.634111,-6217.729913
790.324035,2516.700203,-73085.510509,-6957.935855
790.326566,296.082377,-74770.920605,-3552.988522
790.329096,4293.194464,-77835.302597,-4145.153275
790.331626,2516.700203,-76456.330700,-296.082377
790.334157,-11843.295072,-75230.577904,-3256.906145
790.336687,-2072.576638,-74158.044206,-2368.659014
790.339217,-11695.253884,-78754.617194,3849.070898
790.341748,-1628.453072,-74311.263306,-18209.066173
790.344278,4589.276840,-74158.044206,6069.688724
790.346808,-17764.942608,-72932.291410,-8586.388927
790.349339,7254.018232,-73545.167808,-16432.571912
790.351869,10510.924376,-76149.892501,-4145.153275
790.354399,3997.112087,-73851.606007,-17912.983796
790.356937,12287.418637,-72779.072310,-11991.336260
790.359475,-5477.523971,-73851.606007,-9030.512492
790.362013,4441.235652,-73238.729609,-5477.523971
790.364551,-1036.288319,-75690.235202,740.205942
790.367089,5033.400406,-76609.549800,-4441.235652
790.369627,9474.636058,-75383.797003,-9622.677246
790.372164,-8438.347739,-73085.510509,-5033.400406
790.374702,-3108.864956,-71859.757712,-4737.318029
790.377240,-2368.659014,-72932.291410,888.247130
790.379778,-9178.553681,-73698.386908,5625.565159
790.382316,-10214.842000,-74311.263306,2072.576638
790.384854,-592.164754,-75383.797003,15988.448347
790.387392,-14656.077652,-75690.235202,9326.594869
790.389929,3849.070898,-75383.797003,-2368.659014
790.392467,-10066.800811,-74464.482406,2960.823768
790.395005,-9178.553681,-72932.291410,-3552.988522
790.397543,-14211.954086,-71706.538613,7994.224174
790.400081,-17320.819043,-72166.195912,3849.070898
790.402619,7698.141797,-74617.701505,8586.388927
790.405156,-148.041188,-79061.055394,13027.624579
790.407694,-14063.912898,-74004.825107,2664.741391
790.410232,-12287.418637,-75230.577904,-7698.141797
790.412770,9918.759623,-70480.785816,8142.265362
790.415308,-37158.338288,-72472.634111,13471.748144
790.417846,15988.448347,-73698.386908,-12583.501014
790.420384,-11695.253884,-75690.235202,12287.418637
790.422921,-36566.173535,-74311.263306,7402.059420
790.425459,6069.688724,-74617.701505,9622.677246
790.427997,-35677.926404,-72779.072310,19837.519246
790.430535,-6217.729913,-73238.729609,2664.741391
790.433073,-3701.029710,-77222.426198,8882.471304
790.435611,-148.041188,-75230.577904,-10510.924376
790.438155,444.123565,-76149.892501,-4885.359217
790.440699,-24870.919651,-71859.757712,7105.977043
790.443243,-12879.583391,-70787.224015,11843.295072
790.445787,592.164754,-76609.549800,5033.400406
790.448331,11399.171507,-79061.055394,-10955.047942
790.450875,1332.370696,-77069.207099,-3552.988522
790.453420,-1480.411884,-75077.358804,-13323.706956
790.455964,-3256.906145,-72625.853210,-7550.100608
790.458508,-4737.318029,-73391.948708,-6513.812290
790.461052,5625.565159,-72932.291410,-10658.965565
790.463596,-1628.453072,-74617.701505,-3256.906145
790.466140,11695.253884,-77835.302597,-5477.523971
790.468684,-9178.553681,-75537.016103,444.123565
790.471228,8586.388927,-72932.291410,-8882.471304
790.473772,9030.512492,-73391.948708,1036.288319
790.476317,3849.070898,-72166.195912,-7254.018232
790.478861,-9918.759623,-74464.482406,-296.082377
790.481405,9770.718434,-74004.825107,-11843.295072
790.483949,6217.729913,-72319.415011,-3404.947333
790.486493,-11103.089130,-76915.987999,-7846.182985
790.489037,23390.507767,-74158.044206,-15840.407159
790.491581,-3849.070898,-74158.044206,-14063.912898
790.494125,12583.501014,-72932.291410,-16136.489536
790.496669,-2960.823768,-73545.167808,-3997.112087
790.499214,-1184.329507,-75843.454302,-1776.494261
790.501758,1628.453072,-75996.673402,-9474.636058
790.504302,8438.347739,-76762.768900,-6365.771101
790.506846,1480.411884,-74311.263306,-8586.388927
790.509390,-4441.235652,-72779.072310,-1036.288319
790.511934,1480.411884,-72625.853210,1480.411884
790.514478,-14952.160028,-73238.729609,444.123565
790.517022,-5921.647536,-75537.016103,-0.000000
790.519566,-15840.407159,-74770.920605,12435.459826
790.522111,-7105.977043,-75537.016103,2960.823768
790.524655,2812.782580,-74617.701505,6513.812290
790.527199,-9622.677246,-74004.825107,-3108.864956
790.529743,-3552.988522,-71859.757712,-3552.988522
790.532287,-19097.313304,-73238.729609,148.041188
790.534831,-7550.100608,-72319.415011,3997.112087
790.537375,-888.247130,-74617.701505,10066.800811
790.539896,-10214.842000,-74158.044206,3108.864956
790.542417,-9474.636058,-78448.178995,10362.883188
790.544937,-8734.430116,-73391.948708,-7550.100608
790.547458,-5181.441594,-74004.825107,3552.988522
790.549978,-15100.201217,-71553.319513,12879.583391
790.552499,-9474.636058,-73545.167808,1480.411884
790.555020,-5181.441594,-76762.768900,7846.182985
790.557540,-20725.766376,-75690.235202,6365.771101
790.560061,-9474.636058,-76149.892501,15988.448347
790.562582,-18949.272115,-71706.538613,14063.912898
790.565102,-7105.977043,-74311.263306,7698.141797
790.567623,-6957.935855,-74770.920605,740.205942
790.570144,148.041188,-76303.111601,-6365.771101
790.572664,-4293.194464,-74617.701505,-6365.771101
790.575185,-19689.478057,-71706.538613,13767.830521
790.577706,-14656.077652,-71553.319513,13323.706956
790.580226,6661.853478,-76303.111601,2072.576638
790.582747,9622.677246,-79061.055394,-9326.594869
790.585267,2812.782580,-76149.892501,-4441.235652
790.587788,148.041188,-75230.577904,-15100.201217
790.590309,-1036.288319,-73238.729609,-8734.430116
790.592829,-8142.265362,-72012.976812,-2812.782580
790.595350,9474.636058,-73545.167808,-10066.800811
790.597871,-4145.153275,-74004.825107,-592.164754
790.600391,9030.512492,-78141.740796,-4885.359217
790.602912,-13471.748144,-77222.426198,296.082377
790.605433,-1776.494261,-77528.864398,-1480.411884
790.607953,-2960.823768,-73391.948708,-10658.965565
790.610474,13767.830521,-74158.044206,-16432.571912
790.612995,-0.000000,-71553.319513,296.082377
790.615515,-16136.489536,-73238.729609,5181.441594
790.618036,17320.819043,-75537.016103,-7994.224174
790.620557,-17912.983796,-77069.207099,-3108.864956
790.623077,12435.459826,-76609.549800,-13323.706956
790.625598,3256.906145,-74004.825107,-5921.647536
790.628118,-9326.594869,-73698.386908,-7402.059420
790.630639,3997.112087,-75383.797003,-5477.523971
790.633160,-1036.288319,-76609.549800,-4737.318029
790.635680,5033.400406,-77528.864398,-8734.430116
790.638201,1628.453072,-76149.892501,-5625.565159
790.640732,-5033.400406,-74004.825107,-2812.782580
790.643262,-2220.617826,-71859.757712,-592.164754
790.645793,-11251.130318,-73085.510509,3552.988522
790.648324,2368.659014,-74004.825107,-2220.617826
790.650854,-19393.395680,-75230.577904,8586.388927
790.653385,-4293.194464,-75383.797003,8142.265362
790.655915,-7550.100608,-74770.920605,5773.606348
790.658446,-740.205942,-75383.797003,-1628.453072
790.660977,-5477.523971,-72779.072310,296.082377
790.663507,-13175.665768,-73851.606007,-444.123565
790.666038,-14211.954086,-73391.948708,5921.647536
790.668568,-15840.407159,-74004.825107,6957.935855
790.671099,2960.823768,-75996.673402,5773.606348
790.673630,-1184.329507,-74004.825107,-2960.823768
790.676160,148.041188,-76915.987999,-740.205942
790.678691,-11399.171507,-72319.415011,-3997.112087
790.681222,-14656.077652,-70021.128517,4885.359217
790.683752,-4145.153275,-70327.566716,5773.606348
790.686283,740.205942,-75230.577904,8290.306550
790.688813,-14952.160028,-75077.358804,3256.906145
790.691344,-3108.864956,-75077.358804,10658.965565
790.693875,-22798.343014,-71859.757712,11991.336260
790.696405,-5329.482782,-74464.482406,7105.977043
790.698936,-10214.842000,-74004.825107,2960.823768
790.701466,-0.000000,-76149.892501,-9326.594869
790.703997,-5773.606348,-74158.044206,-8142.265362
790.706528,-17024.736666,-71246.881314,13915.871710
790.709058,-13175.665768,-71553.319513,10807.006753
790.711589,9474.636058,-76303.111601,1776.494261
790.714120,8142.265362,-78141.740796,-8142.265362
790.716650,5773.606348,-75690.235202,-5329.482782
790.719181,-2516.700203,-74311.263306,-14063.912898
790.721711,1036.288319,-73545.167808,-10214.842000
790.724242,-7254.018232,-73085.510509,-3108.864956
790.726773,7402.059420,-73545.167808,-9326.594869
790.729303,-888.247130,-74004.825107,-592.164754
790.731834,444.123565,-77375.645298,-3552.988522
790.734365,3997.112087,-76456.330700,-2664.741391
790.736895,-3108.864956,-72012.976812,-9918.759623
790.739426,-3552.988522,-72012.976812,-10658.965565
790.741965,-2960.823768,-74004.825107,-15544.324782
790.744504,20873.807564,-76456.330700,-1036.288319
790.747044,-20577.725188,-73698.386908,8734.430116
790.749583,5921.647536,-77375.645298,-10807.006753
790.752122,-5625.565159,-77222.426198,-3552.988522
790.754662,-7846.182985,-76609.549800,-13767.830521
790.757201,10214.842000,-73545.167808,-11547.212695
790.759740,-4145.153275,-73851.606007,-6661.853478
790.762280,1776.494261,-74770.920605,-11103.089130
790.764819,1924.535449,-76915.987999,-4145.153275
790.767358,2960.823768,-77375.645298,-9918.759623
790.769898,-1480.411884,-74617.701505,-5625.565159
790.772437,-10214.842000,-72166.195912,1184.329507
790.774976,5329.482782,-72932.291410,-444.123565
790.777516,-20577.725188,-72472.634111,6809.894666
790.780055,-13323.706956,-75843.454302,-1924.535449
790.782594,-2516.700203,-75690.235202,10955.047942
790.785134,-17468.860231,-75077.358804,4737.318029
790.787673,6661.853478,-75230.577904,4145.153275
790.790212,-12287.418637,-74004.825107,2812.782580
790.792752,-6661.853478,-72319.415011,-4737.318029
790.795291,-14804.118840,-72472.634111,5329.482782
790.797830,-14211.954086,-74311.263306,4441.235652
790.800370,-3997.112087,-76149.892501,9030.512492
790.802909,-8438.347739,-76762.768900,5921.647536
790.805448,-2072.576638,-76149.892501,4441.235652
790.807987,-17320.819043,-75537.016103,-3997.112087
790.810527,-13915.871710,-71093.662214,-6957.935855
790.813066,2664.741391,-71706.538613,5477.523971
790.815605,-12879.583391,-74158.044206,4737.318029
790.818145,-11399.171507,-76609.549800,6661.853478
790.820684,-4441.235652,-75230.577904,10066.800811
790.823223,-19541.436869,-73085.510509,13767.830521
790.825763,-4293.194464,-73698.386908,9622.677246
790.828302,-6661.853478,-74617.701505,3997.112087
790.830841,1776.494261,-74311.263306,-9622.677246
790.833381,-7846.182985,-74924.139704,-5329.482782
790.835920,-13619.789333,-71859.757712,10066.800811
790.838459,-11399.171507,-71706.538613,11103.089130
790.840999,9770.718434,-76456.330700,1628.453072
790.843516,5921.647536,-77682.083497,-6217.729913
790.846034,3849.070898,-75690.235202,-3256.906145
790.848552,-5033.400406,-74924.139704,-13619.789333
790.851070,1036.288319,-74464.482406,-11103.089130
790.853588,-5921.647536,-73085.510509,-6069.688724
790.856105,10807.006753,-73698.386908,-8438.347739
790.858623,-3108.864956,-73545.167808,-296.082377
790.861141,3552.988522,-78141.740796,-888.247130
790.863659,-12139.377449,-76303.111601,-888.247130
790.866176,-5033.400406,-75996.673402,-2516.700203
790.868694,-10658.965565,-76303.111601,6809.894666
790.871212,-2072.576638,-74464.482406,-13915.871710
790.873730,14952.160028,-73545.167808,-14508.036463
790.876247,2072.576638,-72012.976812,-2072.576638
790.878765,-1776.494261,-76609.549800,-9918.759623
790.881283,20725.766376,-74158.044206,-16728.654289
790.883801,-2960.823768,-74158.044206,-16432.571912
790.886319,11399.171507,-72166.195912,-13471.748144
790.888836,-10362.883188,-73545.167808,-4737.318029
790.891354,4885.359217,-75690.235202,-10510.924376
790.893872,2220.617826,-76303.111601,-9770.718434
790.896390,2072.576638,-76915.987999,-6661.853478
790.898907,-2664.741391,-74464.482406,-3108.864956
790.901425,-4145.153275,-72319.415011,4737.318029
790.903943,-6661.853478,-72319.415011,-148.041188
790.906461,-10510.924376,-73238.729609,592.164754
790.908978,-24426.796086,-74617.701505,6661.853478
790.911496,-296.082377,-75996.673402,5921.647536
790.914014,-10362.883188,-75690.235202,4737.318029
790.916532,1036.288319,-74617.701505,-1776.494261
790.919049,-6365.771101,-72166.195912,3701.029710
790.921567,-18061.024985,-73238.729609,740.205942
790.924085,-15544.324782,-71859.757712,6217.729913
790.926603,-6661.853478,-74311.263306,4737.318029
790.929121,10510.924376,-77528.864398,10955.047942
790.931638,-13175.665768,-74311.263306,11843.295072
790.934156,-5773.606348,-76762.768900,-8438.347739
790.936674,2220.617826,-74311.263306,-148.041188
790.939192,-17912.983796,-70940.443115,8142.265362
790.941709,-13323.706956,-72625.853210,6957.935855
790.944239,-8586.388927,-75537.016103,6809.894666
790.946768,-13471.748144,-75230.577904,9178.553681
790.949297,-13175.665768,-74617.701505,8142.265362
790.951827,-8882.471304,-74464.482406,12583.501014
790.954356,-9326.594869,-73698.386908,1924.535449
790.956885,-2664.741391,-75383.797003,-1184.329507
790.959414,-6069.688724,-74617.701505,-10807.006753
790.961944,-11399.171507,-72166.195912,5033.400406
790.964473,-13323.706956,-72166.195912,11547.212695
790.967002,3997.112087,-75996.673402,3701.029710
790.969531,15100.201217,-78141.740796,-8734.430116
790.972061,-2516.700203,-74464.482406,1184.329507
790.974590,1776.494261,-75077.358804,-15544.324782
790.977119,-3997.112087,-74464.482406,-9030.512492
790.979649,-3404.947333,-73851.606007,-11399.171507
790.982178,10955.047942,-74158.044206,-7402.059420
790.984707,-5625.565159,-72625.853210,-592.164754
790.987236,740.205942,-76609.549800,-2664.741391
790.989766,-5477.523971,-75077.358804,-1036.288319
790.992295,7550.100608,-76456.330700,-592.164754
790.994824,4145.153275,-72319.415011,-1332.370696
790.997353,-3108.864956,-74617.701505,-8142.265362
790.999883,24278.754898,-73698.386908,-10955.047942
791.002412,-20429.683999,-73391.948708,10214.842000
791.004941,-5181.441594,-75537.016103,-13175.665768
791.007471,17172.777854,-74770.920605,-13471.748144
791.010000,-11991.336260,-75383.797003,-13323.706956
791.012529,12879.583391,-72932.291410,-14804.118840
791.015058,-7402.059420,-72779.072310,-1924.535449
791.017588,7846.182985,-74924.139704,-10807.006753
791.020117,-740.205942,-75996.673402,-9474.636058
791.022646,-1776.494261,-76303.111601,-6661.853478
791.025175,-2368.659014,-73238.729609,-2812.782580
791.027705,2368.659014,-73238.729609,5033.400406
791.030234,-14211.954086,-71706.538613,1332.370696
791.032763,-2220.617826,-74464.482406,1480.411884
791.035293,-24722.878463,-74924.139704,7550.100608
791.037822,-3108.864956,-76303.111601,5329.482782
791.040351,1776.494261,-76303.111601,3701.029710
791.042880,-9622.677246,-74311.263306,-1628.453072
791.045419,1184.329507,-72932.291410,-148.041188
791.047959,-26055.249158,-71859.757712,5329.482782
791.050498,-11251.130318,-73851.606007,4441.235652
791.053037,-4589.276840,-76456.330700,8142.265362
791.055576,-10510.924376,-75996.673402,1036.288319
791.058116,20281.642811,-78294.959896,2220.617826
791.060655,-8142.265362,-73391.948708,21465.972318
791.063194,-51370.292375,-70787.224015,-8438.347739
791.065733,29164.114115,-74770.920605,3256.906145
791.068272,-45596.686027,-72932.291410,16432.571912
791.070812,11547.212695,-75690.235202,5329.482782
791.073351,-20577.725188,-75843.454302,23686.590144
791.075890,-10658.965565,-73851.606007,1332.370696
791.078429,4293.194464,-74617.701505,6809.894666
791.080969,-18505.148550,-74311.263306,2812.782580
791.083508,3997.112087,-75230.577904,-10214.842000
791.086047,-20281.642811,-74770.920605,5477.523971
791.088586,-9326.594869,-70940.443115,4589.276840
791.091125,-9326.594869,-74311.263306,12879.583391
791.093665,11251.130318,-77528.864398,-4737.318029
791.096204,-3404.947333,-75077.358804,1332.370696
791.098743,4885.359217,-75690.235202,-8882.471304
791.101282,-5329.482782,-73391.948708,-9474.636058
791.103822,296.082377,-75537.016103,-10214.842000
791.106361,-1924.535449,-73238.729609,-9030.512492
791.108900,6661.853478,-75383.797003,-3849.070898
791.111439,4293.194464,-74464.482406,-1628.453072
791.113978,592.164754,-75537.016103,4589.276840
791.116518,2960.823768,-76915.987999,1332.370696
791.119057,7402.059420,-72319.415011,-5329.482782
791.121596,-7550.100608,-75383.797003,-5625.565159
791.124135,19393.395680,-72319.415011,-8142.265362
791.126675,-10066.800811,-74617.701505,11991.336260
791.129214,3404.947333,-75690.235202,-14359.995275
791.131753,-7846.182985,-78294.959896,1332.370696
791.134292,-10066.800811,-74617.701505,-14359.995275
791.136832,14656.077652,-72012.976812,-17024.736666
791.139371,-9918.759623,-72779.072310,-888.247130
791.141910,14508.036463,-74004.825107,-16136.489536
791.144449,-1628.453072,-75537.016103,-6957.935855
791.146968,1332.370696,-76762.768900,-12139.377449
791.149487,-592.164754,-74924.139704,-592.164754
791.152005,1776.494261,-73238.729609,7698.141797
791.154524,-18357.107362,-72166.195912,4737.318029
791.157042,296.082377,-74004.825107,888.247130
791.159561,-23834.631332,-74464.482406,10955.047942
791.162080,-5773.606348,-75996.673402,4441.235652
791.164598,-2960.823768,-75996.673402,3997.112087
791.167117,-6809.894666,-75383.797003,-1628.453072
791.169636,-888.247130,-73391.948708,2960.823768
791.172154,-23094.425390,-71706.538613,6957.935855
791.174673,-12583.501014,-73085.510509,3849.070898
791.177192,148.041188,-72625.853210,2368.659014
791.179710,-9770.718434,-76762.768900,10510.924376
791.182229,-3256.906145,-75690.235202,-8142.265362
791.184748,-0.000000,-73085.510509,2368.659014
791.187266,-34493.596897,-71706.538613,-2220.617826
791.189785,-1184.329507,-71246.881314,-4589.276840
791.192304,-9030.512492,-73851.606007,16876.695478
791.194822,-19541.436869,-74158.044206,3404.947333
791.197341,-592.164754,-75690.235202,17320.819043
791.199860,-28127.825796,-75383.797003,9030.512492
791.202378,1628.453072,-73851.606007,4293.194464
791.204897,-14211.954086,-74617.701505,1776.494261
791.207416,2072.576638,-73698.386908,-10510.924376
791.209934,-6217.729913,-72625.853210,6217.729913
791.212453,-19689.478057,-72932.291410,10362.883188
791.214972,12287.418637,-76149.892501,-1184.329507
791.217490,3256.906145,-77835.302597,-3108.864956
791.220009,4145.153275,-73545.167808,-1184.329507
791.222528,148.041188,-75230.577904,-9918.759623
791.225046,-3552.988522,-73085.510509,-10214.842000
791.227565,-888.247130,-73851.606007,-9178.553681
791.230084,3701.029710,-73698.386908,-11103.089130
791.232602,5181.441594,-73698.386908,-3997.112087
791.235121,-1628.453072,-74004.825107,-1924.535449
791.237640,-1776.494261,-73851.606007,592.164754
791.240158,-1332.370696,-73851.606007,-2960.823768
791.242677,6217.729913,-74924.139704,-14359.995275
791.245195,2516.700203,-74311.263306,-3552.988522
791.247727,-13619.789333,-71246.881314,-5181.441594
791.250258,11843.295072,-76915.987999,1332.370696
791.252789,-4589.276840,-74770.920605,-8586.388927
791.255320,12287.418637,-77069.207099,-16284.530724
791.257851,296.082377,-74158.044206,-11399.171507
791.260382,1480.411884,-73085.510509,-7698.141797
791.262913,6217.729913,-72779.072310,-5625.565159
791.265444,2812.782580,-75843.454302,-10658.965565
791.267975,-1628.453072,-76303.111601,-6513.812290
791.270506,-6957.935855,-76149.892501,-2368.659014
791.273037,2516.700203,-73851.606007,5033.400406
791.275568,-11991.336260,-72472.634111,1332.370696
791.278099,-4145.153275,-73238.729609,3256.906145
791.280630,-21465.972318,-73545.167808,6957.935855
791.283161,-4885.359217,-76149.892501,4293.194464
791.285692,-6365.771101,-75843.454302,4885.359217
791.288223,-2072.576638,-75690.235202,-5329.482782
791.290754,-1184.329507,-71706.538613,2368.659014
791.293285,-20429.683999,-73238.729609,2960.823768
791.295816,-10214.842000,-71553.319513,4293.194464
791.298347,-14211.954086,-73238.729609,6661.853478
791.300878,5033.400406,-75383.797003,5773.606348
791.303409,-8290.306550,-75996.673402,5329.482782
791.305940,-27831.743419,-74004.825107,-6365.771101
791.308471,-1184.329507,-72012.976812,-7846.182985
791.311002,-17912.983796,-74464.482406,15544.324782
791.313533,-7994.224174,-71400.100414,1332.370696
791.316064,1924.535449,-75537.016103,12139.377449
791.318595,-9326.594869,-75077.358804,5625.565159
791.321126,-6661.853478,-74924.139704,7994.224174
791.323657,-13619.789333,-74617.701505,9030.512492
791.326188,-4737.318029,-73391.948708,-4589.276840
791.328719,-8882.471304,-74770.920605,-7698.141797
791.331250,-9030.512492,-71859.757712,5921.647536
791.333781,-9178.553681,-71859.757712,3997.112087
791.336312,9918.759623,-76762.768900,740.205942
791.338843,-9030.512492,-75843.454302,-7698.141797
791.341374,10066.800811,-74158.044206,-4441.235652
791.343905,-11547.212695,-73698.386908,-5921.647536
791.346436,5921.647536,-74770.920605,-11991.336260
791.348978,-3256.906145,-74158.044206,-9326.594869
791.351520,8882.471304,-75690.235202,-11399.171507
791.354062,592.164754,-74004.825107,-3404.947333
791.356604,-1184.329507,-75383.797003,-1776.494261
791.359145,3849.070898,-74004.825107,-888.247130
791.361687,7105.977043,-73085.510509,-13027.624579
791.364229,-2368.659014,-76456.330700,-592.164754
791.366771,-5773.606348,-73238.729609,-1480.411884
791.369313,2960.823768,-73391.948708,-3552.988522
791.371854,6661.853478,-73545.167808,-5921.647536
791.374396,5921.647536,-75230.577904,-10807.006753
791.376938,4441.235652,-75383.797003,-14211.954086
791.379480,-4737.318029,-74770.920605,-6957.935855
791.382022,6069.688724,-73545.167808,-9770.718434
791.384563,-4589.276840,-74311.263306,-4145.153275
791.387105,11251.130318,-76456.330700,-12287.418637
791.389647,-7402.059420,-75383.797003,-2664.741391
791.392189,-4441.235652,-74004.825107,-1036.288319
791.394730,1332.370696,-73391.948708,4737.318029
791.397272,-10362.883188,-72932.291410,6809.894666
791.399814,-13471.748144,-73698.386908,444.123565
791.402356,-8882.471304,-74004.825107,12287.418637
791.404898,-11103.089130,-75230.577904,-888.247130
791.407439,2368.659014,-75996.673402,1628.453072
791.409981,-7994.224174,-74464.482406,-1184.329507
791.412523,-6069.688724,-72319.415011,1184.329507
791.415065,-20281.642811,-72012.976812,7105.977043
791.417607,-21465.972318,-73391.948708,7698.141797
791.420148,7994.224174,-75843.454302,9474.636058
791.422690,-7550.100608,-75537.016103,4885.359217
791.425232,3108.864956,-75077.358804,-12731.542202
791.427774,-6217.729913,-73085.510509,14952.160028
791.430316,-34197.514520,-71706.538613,5329.482782
791.432857,-3701.029710,-72472.634111,3552.988522
791.435399,-24278.754898,-75537.016103,10658.965565
791.437941,-4145.153275,-76915.987999,4145.153275
791.440483,-14211.954086,-76456.330700,15100.201217
791.443024,-9474.636058,-74617.701505,1776.494261
791.445566,-3404.947333,-73851.606007,1184.329507
791.448108,-14359.995275,-74464.482406,-6069.688724
791.450630,-5921.647536,-71246.881314,3701.029710
791.453151,-8734.430116,-73698.386908,6365.771101
791.455673,7994.224174,-77375.645298,-1184.329507
791.458195,11547.212695,-77375.645298,-6809.894666
791.460716,-296.082377,-72779.072310,148.041188
791.463238,-148.041188,-73238.729609,-10066.800811
791.465760,-3701.029710,-74158.044206,-7402.059420
791.468281,-0.000000,-74770.920605,-12287.418637
791.470803,9326.594869,-75690.235202,-11843.295072
791.473324,-1924.535449,-74311.263306,-5477.523971
791.475846,10807.006753,-75383.797003,-888.247130
791.478368,-8438.347739,-71400.100414,592.164754
791.480889,-2516.700203,-73085.510509,-14359.995275
791.483411,14063.912898,-75077.358804,-7698.141797
791.485933,-4293.194464,-75690.235202,-11251.130318
791.488454,26203.290347,-71553.319513,-9326.594869
791.490976,-7402.059420,-75077.358804,7846.182985
791.493498,-5477.523971,-76609.549800,-14211.954086
791.496019,10807.006753,-76456.330700,-8586.388927
791.498541,-13175.665768,-75843.454302,-6661.853478
791.501063,20429.683999,-74158.044206,-12583.501014
791.503584,-3849.070898,-74924.139704,-2664.741391
791.506106,5773.606348,-75230.577904,-11547.212695
791.508628,-8438.347739,-74770.920605,-3108.864956
791.511149,-2516.700203,-73698.386908,4737.318029
791.513671,-2960.823768,-74158.044206,-1332.370696
791.516192,-6661.853478,-74464.482406,7550.100608
791.518714,-21021.848753,-73545.167808,3256.906145
791.521236,-3404.947333,-74311.263306,11251.130318
791.523757,-19541.436869,-75077.358804,5625.565159
791.526279,1776.494261,-76456.330700,-2368.659014
791.528801,-3552.988522,-73698.386908,-444.123565
791.531322,-17320.819043,-72319.415011,-1184.329507
791.533844,-14211.954086,-71706.538613,8586.388927
791.536366,-29608.237680,-75230.577904,11399.171507
791.538887,-3256.906145,-74311.263306,-4441.235652
791.541409,6809.894666,-80133.589091,8290.306550
791.543931,-12435.459826,-74770.920605,-10807.006753
791.546452,-8586.388927,-69561.471218,-1184.329507
791.548974,-21762.054695,-72625.853210,16728.654289
791.551508,-18505.148550,-74004.825107,5921.647536
791.554043,-6069.688724,-76915.987999,14952.160028
791.556577,-11103.089130,-76149.892501,6217.729913
791.559112,3701.029710,-76303.111601,7550.100608
791.561646,-9770.718434,-73085.510509,2960.823768
791.564180,-6513.812290,-73085.510509,-3404.947333
791.566715,-18505.148550,-72012.976812,4441.235652
791.569249,-10955.047942,-71859.757712,5181.441594
791.571784,5033.400406,-75996.673402,1036.288319
791.574318,12879.583391,-78754.617194,-5033.400406
791.576853,-6069.688724,-75690.235202,148.041188
791.579387,7994.224174,-72932.291410,-7698.141797
791.581921,-10362.883188,-72625.853210,-4885.359217
791.584456,2516.700203,-74770.920605,-12287.418637
791.586990,4885.359217,-75383.797003,-11695.253884
791.589525,6957.935855,-75690.235202,-9178.553681
791.592059,148.041188,-76303.111601,-1332.370696
791.594594,-10362.883188,-75996.673402,3552.988522
791.597128,-15840.407159,-72472.634111,-6069.688724
791.599662,6069.688724,-77988.521696,-2368.659014
791.602197,15396.283594,-76609.549800,-2960.823768
791.604731,-9030.512492,-74158.044206,4293.194464
791.607266,12731.542202,-72932.291410,-7105.977043
791.609800,-19097.313304,-76915.987999,444.123565
791.612335,5033.400406,-77222.426198,-18061.024985
791.614869,-5329.482782,-75996.673402,-4885.359217
791.617403,3552.988522,-74004.825107,-13027.624579
791.619938,13323.706956,-73391.948708,-8438.347739
791.622472,-7402.059420,-74924.139704,-4885.359217
791.625007,-1332.370696,-74158.044206,-5921.647536
791.627541,-7550.100608,-74158.044206,1628.453072
791.630076,-148.041188,-75077.358804,592.164754
791.632620,-8438.347739,-74464.482406,7105.977043
791.635165,-11695.253884,-74004.825107,3108.864956
791.637710,-13471.748144,-72625.853210,12139.377449
791.640255,-9622.677246,-76303.111601,2516.700203
791.642800,3108.864956,-76149.892501,-1924.535449
791.645345,-6809.894666,-74464.482406,-2960.823768
791.647890,-4441.235652,-72319.415011,1332.370696
791.650434,-21614.013506,-70940.443115,10362.883188
791.652979,-21169.889941,-72472.634111,5477.523971
791.655524,-6069.688724,-74311.263306,5477.523971
791.658069,-9474.636058,-78601.398095,-4737.318029
791.660614,18801.230927,-75230.577904,-2072.576638
791.663159,-34641.638086,-72472.634111,17764.942608
791.665704,-4885.359217,-69101.813920,-1184.329507
791.668249,-18801.230927,-74924.139704,20577.725188
791.670793,-15544.324782,-75996.673402,5477.523971
791.673338,-740.205942,-78141.740796,16432.571912
791.675883,-17764.942608,-76456.330700,6957.935855
791.678428,3404.947333,-73545.167808,-444.123565
791.680973,-13323.706956,-73545.167808,-1036.288319
791.683518,-14063.912898,-70174.347617,4441.235652
791.686063,-2812.782580,-73238.729609,5625.565159
791.688607,-740.205942,-75690.235202,-2664.741391
791.691152,20725.766376,-79367.493593,-10510.924376
791.693697,-9770.718434,-73698.386908,-740.205942
791.696242,-2664.741391,-72319.415011,-7994.224174
791.698787,-740.205942,-73391.948708,-3404.947333
791.701332,-444.123565,-73698.386908,-11843.295072
791.703877,5773.606348,-77222.426198,-12139.377449
791.706422,6217.729913,-76149.892501,-11843.295072
791.708966,1036.288319,-75537.016103,-1776.494261
791.711511,-2220.617826,-74464.482406,2664.741391
791.714056,10658.965565,-72012.976812,-5625.565159
791.716601,-15100.201217,-75996.673402,444.123565
791.719146,21762.054695,-75996.673402,-10807.006753
791.721691,-17468.860231,-74158.044206,10510.924376
791.724236,1184.329507,-74617.701505,-14656.077652
791.726780,2664.741391,-76609.549800,1924.535449
791.729325,-9178.553681,-75230.577904,-16580.613101
791.731870,18061.024985,-73851.606007,-11251.130318
791.734423,-8142.265362,-74617.701505,-5033.400406
791.736977,8734.430116,-74464.482406,-13619.789333
791.739530,-3256.906145,-75537.016103,-1184.329507
791.742083,-6661.853478,-74004.825107,-888.247130
791.744636,2812.782580,-74464.482406,3701.029710
791.747190,-16432.571912,-75230.577904,3849.070898
791.749743,1184.329507,-73698.386908,-0.000000
791.752296,-21910.095883,-73085.510509,11991.336260
791.754849,-12583.501014,-74004.825107,10214.842000
791.757403,-5033.400406,-75537.016103,3404.947333
791.759956,-1332.370696,-77222.426198,-1776.494261
791.762509,-7105.977043,-73391.948708,-592.164754
791.765062,-12435.459826,-72319.415011,2516.700203
791.767616,-11103.089130,-72319.415011,9622.677246
791.770169,-20281.642811,-72319.415011,3404.947333
791.772722,-2664.741391,-77835.302597,1924.535449
791.775275,9326.594869,-76609.549800,-11991.336260
791.777829,-2960.823768,-73391.948708,1184.329507
791.780382,-18949.272115,-68795.375720,7994.224174
791.782935,-13915.871710,-71246.881314,11695.253884
791.785488,-18357.107362,-73698.386908,9622.677246
791.788042,-7402.059420,-77375.645298,5329.482782
791.790595,888.247130,-76303.111601,7105.977043
791.793148,-11103.089130,-74770.920605,3701.029710
791.795701,-5625.565159,-73545.167808,-2220.617826
791.798255,-20577.725188,-71400.100414,4145.153275
791.800808,-9178.553681,-71400.100414,5033.400406
791.803361,-1924.535449,-75230.577904,1184.329507
791.805914,17468.860231,-79520.712692,-9030.512492
791.808468,-7550.100608,-74464.482406,-4441.235652
791.811021,3256.906145,-73238.729609,-7402.059420
791.813574,-10362.883188,-72166.195912,-4441.235652
791.816127,3849.070898,-75230.577904,-8290.306550
791.818681,1776.494261,-75843.454302,-13767.830521
791.821234,12435.459826,-77069.207099,-11843.295072
791.823787,-1184.329507,-76303.111601,-3552.988522
791.826340,-1332.370696,-76303.111601,10362.883188
791.828894,-3256.906145,-72779.072310,-7402.059420
791.831447,16876.695478,-73238.729609,-2368.659014
791.834000,-32717.102636,-77988.521696,1924.535449
791.836561,49001.633360,-75230.577904,-19245.354492
791.839121,-23390.507767,-73085.510509,7105.977043
791.841682,14804.118840,-74464.482406,-19689.478057
791.844242,-1924.535449,-76149.892501,-2368.659014
791.846803,-9918.759623,-75843.454302,-7105.977043
791.849363,18801.230927,-73391.948708,-19689.478057
791.851924,-3849.070898,-76303.111601,-3997.112087
791.854484,5921.647536,-72932.291410,-10066.800811
791.857044,-12435.459826,-74311.263306,4293.194464
791.859605,1036.288319,-73085.510509,4589.276840
791.862165,-11251.130318,-74158.044206,3849.070898
791.864726,-2072.576638,-77222.426198,3404.947333
791.867286,-19837.519246,-72932.291410,11399.171507
791.869847,-10807.006753,-73545.167808,8438.347739
791.872407,-6069.688724,-74004.825107,2368.659014
791.874968,-2664.741391,-76303.111601,-2368.659014
791.877528,-6809.894666,-73085.510509,-3108.864956
791.880089,-15396.283594,-72166.195912,3256.906145
791.882649,-3552.988522,-70940.443115,7254.018232
791.885210,-12287.418637,-74004.825107,1036.288319
791.887770,2368.659014,-78448.178995,6365.771101
791.890331,-6217.729913,-76762.768900,-8586.388927
791.892891,3552.988522,-74311.263306,2960.823768
791.895452,-25018.960840,-68182.499322,5921.647536
791.898012,-18209.066173,-72166.195912,14656.077652
791.900572,-13175.665768,-74770.920605,13027.624579
791.903133,-8142.265362,-75230.577904,2960.823768
791.905693,-1776.494261,-75383.797003,6069.688724
791.908254,-9622.677246,-74158.044206,-2664.741391
791.910814,-10658.965565,-73238.729609,-2220.617826
791.913375,-23094.425390,-71400.100414,4589.276840
791.915935,-8734.430116,-71553.319513,7698.141797
791.918496,8586.388927,-77222.426198,-6069.688724
791.921056,5625.565159,-78754.617194,-10807.006753
791.923617,4589.276840,-74464.482406,-3552.988522
791.926177,-6217.729913,-72012.976812,-8882.471304
791.928738,-1480.411884,-72012.976812,-4145.153275
791.931298,-592.164754,-73698.386908,-9030.512492
791.933859,9474.636058,-76762.768900,-11399.171507
791.936419,1628.453072,-77375.645298,-12731.542202
791.938986,3849.070898,-75230.577904,-3256.906145
791.941552,-21465.972318,-71553.319513,-592.164754
791.944119,7254.018232,-75077.358804,444.123565
791.946685,-17616.901420,-75843.454302,2960.823768
791.949252,14656.077652,-77988.521696,-6217.729913
791.951818,6217.729913,-72166.195912,-4589.276840
791.954385,4441.235652,-74770.920605,-8882.471304
791.956951,10066.800811,-74158.044206,-13471.748144
791.959518,3701.029710,-75843.454302,-7402.059420
791.962084,2664.741391,-74004.825107,-17468.860231
791.964651,13027.624579,-75077.358804,-9622.677246
791.967217,-5181.441594,-74924.139704,-5773.606348
791.969784,-3404.947333,-74311.263306,-2812.782580
791.972350,-3552.988522,-74158.044206,7254.018232
791.974917,-10214.842000,-74158.044206,2664.741391
791.977483,-0.000000,-75230.577904,2516.700203
791.980050,-23686.590144,-74311.263306,11695.253884
791.982616,-6365.771101,-72932.291410,4145.153275
791.985183,-7994.224174,-74770.920605,7698.141797
791.987749,-3404.947333,-74924.139704,-3256.906145
791.990316,-1628.453072,-73698.386908,-592.164754
791.992882,-16580.613101,-72932.291410,2072.576638
791.995449,-5477.523971,-70940.443115,9030.512492
791.998015,-26351.331535,-73545.167808,5181.441594
792.000582,9474.636058,-77375.645298,-6957.935855
792.003148,-6957.935855,-76149.892501,9474.636058
792.005715,-25611.125593,-73698.386908,-13767.830521
792.008281,13619.789333,-71400.100414,8586.388927
792.010848,-40119.162056,-69408.252119,14359.995275
792.013414,11251.130318,-73851.606007,8586.388927
792.015981,-15544.324782,-77222.426198,16136.489536
792.018547,-17172.777854,-76149.892501,148.041188
792.021114,4885.359217,-75843.454302,-1628.453072
792.023680,-21614.013506,-73238.729609,-444.123565
792.026247,-13619.789333,-70940.443115,4293.194464
792.028814,-12731.542202,-72012.976812,10955.047942
792.031380,5033.400406,-75537.016103,-5477.523971
792.033947,20133.601622,-80440.027290,-11991.336260
792.036513,-1776.494261,-74770.920605,-3256.906145
792.039080,-296.082377,-72319.415011,-9918.759623
792.041650,-6809.894666,-71706.538613,-2072.576638
792.044221,2664.741391,-72779.072310,-8290.306550
792.046792,5773.606348,-76915.987999,-9474.636058
792.049363,10658.965565,-77375.645298,-15100.201217
792.051934,-2812.782580,-79061.055394,-2664.741391
792.054504,-11991.336260,-72779.072310,-148.041188
792.057075,-8438.347739,-70480.785816,-4737.318029
792.059646,592.164754,-75230.577904,-888.247130
792.062217,-1776.494261,-75843.454302,-7994.224174
792.064788,13027.624579,-77375.645298,-2516.700203
792.067359,-888.247130,-73698.386908,-11251.130318
792.069929,9030.512492,-75383.797003,-13471.748144
792.072500,-5033.400406,-72166.195912,-13175.665768
792.075071,740.205942,-74617.701505,-17468.860231
792.077642,8734.430116,-75077.358804,-10066.800811
792.080213,-3552.988522,-75230.577904,-6069.688724
792.082783,-5625.565159,-75077.358804,2220.617826
792.085354,148.041188,-74311.263306,6661.853478
792.087925,-15544.324782,-74770.920605,8882.471304
792.090496,3256.906145,-75077.358804,2516.700203
792.093067,-20133.601622,-72932.291410,9770.718434
792.095638,-9918.759623,-74464.482406,5773.606348
792.098208,-4589.276840,-74464.482406,2220.617826
792.100779,-3108.864956,-75230.577904,-2664.741391
792.103350,-7994.224174,-73851.606007,444.123565
792.105921,-6809.894666,-73238.729609,3552.988522
792.108492,-9326.594869,-72166.195912,10658.965565
792.111062,-13175.665768,-76149.892501,12435.459826
792.113633,8290.306550,-78141.740796,5033.400406
792.116204,-21021.848753,-73851.606007,-6069.688724
792.118775,10066.800811,-73851.606007,-3997.112087
792.121346,-21021.848753,-67722.842023,11843.295072
792.123917,-22946.384202,-72319.415011,7254.018232
792.126487,-6365.771101,-75230.577904,17616.901420
792.129058,-12879.583391,-79367.493593,6069.688724
792.131629,7846.182985,-75843.454302,-592.164754
792.134200,-16580.613101,-75690.235202,2960.823768
792.136771,-14211.954086,-72319.415011,444.123565
792.139341,-16580.613101,-71400.100414,9474.636058
792.141912,-6513.812290,-73851.606007,3701.029710
792.144487,24426.796086,-78754.617194,-8586.388927
792.147061,-5181.441594,-77988.521696,-4441.235652
792.149636,8882.471304,-74311.263306,-11103.089130
792.152210,-12583.501014,-71553.319513,-1628.453072
792.154785,4737.318029,-72779.072310,-7550.100608
792.157359,-0.000000,-74770.920605,-7105.977043
792.159934,10658.965565,-77222.426198,-14359.995275
792.162508,10362.883188,-76915.987999,-9030.512492
792.165083,-4589.276840,-73238.729609,-4293.194464
792.167657,-13471.748144,-70327.566716,1480.411884
792.170232,9178.553681,-74158.044206,-6217.729913
792.172806,592.164754,-75383.797003,6513.812290
792.175381,4737.318029,-75843.454302,-11547.212695
792.177955,19097.313304,-75077.358804,-6957.935855
792.180530,-6809.894666,-74770.920605,-11991.336260
792.183105,10066.800811,-73391.948708,-12879.583391
792.185679,-0.000000,-74464.482406,-11547.212695
792.188254,9178.553681,-74617.701505,-16136.489536
792.190828,592.164754,-74924.139704,-7402.059420
792.193403,-6069.688724,-75230.577904,1184.329507
792.195977,-1036.288319,-73391.948708,2516.700203
792.198552,-15988.448347,-74311.263306,7550.100608
792.201126,-592.164754,-75077.358804,2072.576638
792.203701,-21614.013506,-75077.358804,11843.295072
792.206275,-12879.583391,-73698.386908,5625.565159
792.208850,-4885.359217,-74158.044206,3108.864956
792.211424,-4145.153275,-75383.797003,-2220.617826
792.213999,-6217.729913,-73391.948708,296.082377
792.216573,-15988.448347,-72779.072310,3256.906145
792.219148,-23390.507767,-74311.263306,10955.047942
792.221722,-17320.819043,-73391.948708,444.123565
792.224297,-1924.535449,-78754.617194,12583.501014
792.226871,-3256.906145,-78448.178995,-3552.988522
792.229446,-4145.153275,-71706.538613,-2960.823768
792.232020,-18801.230927,-70634.004916,18653.189738
792.234595,-16136.489536,-68488.937521,5773.606348
792.237169,-8290.306550,-74158.044206,14063.912898
792.239744,-7550.100608,-76762.768900,4293.194464
792.242318,2220.617826,-75996.673402,3997.112087
792.244893,-6217.729913,-74464.482406,-3256.906145
792.247470,-17912.983796,-71859.757712,4589.276840
792.250048,-16284.530724,-70327.566716,10658.965565
792.252626,-9178.553681,-73085.510509,888.247130
792.255203,28423.908173,-78754.617194,-12731.542202
792.257781,-8734.430116,-77835.302597,-6069.688724
792.260358,12731.542202,-75230.577904,-12435.459826
792.262936,-11843.295072,-73238.729609,-296.082377
792.265513,888.247130,-72779.072310,-3701.029710
792.268091,1036.288319,-74617.701505,-8142.265362
792.270668,11251.130318,-77682.083497,-14063.912898
792.273246,12583.501014,-76762.768900,-9770.718434
792.275824,-1332.370696,-73698.386908,-5181.441594
792.278401,2664.741391,-71093.662214,-4293.194464
792.280979,-16728.654289,-72779.072310,6809.894666
792.283556,6365.771101,-76149.892501,-13471.748144
792.286134,24130.713709,-75230.577904,-10362.883188
792.288711,-6217.729913,-75537.016103,-9622.677246
792.291289,12435.459826,-74464.482406,-16432.571912
792.293866,-2072.576638,-74464.482406,-6217.729913
792.296444,3552.988522,-73238.729609,-17468.860231
792.299021,6957.935855,-73391.948708,-10066.800811
792.301599,-1924.535449,-75996.673402,-7254.018232
792.304177,-2516.700203,-74158.044206,1924.535449
792.306754,1332.370696,-75077.358804,5329.482782
792.309332,-21910.095883,-74617.701505,11251.130318
792.311909,592.164754,-75230.577904,6217.729913
792.314487,-25611.125593,-73545.167808,14063.912898
792.317064,-8290.306550,-74770.920605,6513.812290
792.319642,-7994.224174,-75230.577904,2516.700203
792.322219,-5625.565159,-74158.044206,-4589.276840
792.324797,-7105.977043,-72319.415011,888.247130
792.327374,-13915.871710,-70634.004916,4589.276840
792.329952,-10807.006753,-72779.072310,11251.130318
792.332530,2812.782580,-72779.072310,-9030.512492
792.335107,5477.523971,-77988.521696,8290.306550
792.337685,-7698.141797,-75537.016103,-3997.112087
792.340262,-8882.471304,-70634.004916,-1332.370696
792.342840,-19393.395680,-70480.785816,11547.212695
792.345417,-20281.642811,-72779.072310,14952.160028
792.347995,-7846.182985,-76303.111601,6365.771101
792.350546,-3108.864956,-77375.645298,9474.636058
792.353097,-8438.347739,-76303.111601,-3552.988522
792.355647,-4885.359217,-73851.606007,-444.123565
792.358198,-25463.084405,-71093.662214,8882.471304
792.360749,-8142.265362,-71093.662214,5033.400406
792.363300,13175.665768,-77222.426198,-6365.771101
792.365851,11399.171507,-78448.178995,-13915.871710
792.368402,6809.894666,-75996.673402,-8734.430116
792.370953,-6661.853478,-73545.167808,-9030.512492
792.373503,148.041188,-70021.128517,-3849.070898
792.376054,-6365.771101,-72932.291410,-2812.782580
792.378605,10807.006753,-76609.549800,-13175.665768
792.381156,11547.212695,-77528.864398,-12139.377449
792.383707,-592.164754,-74924.139704,-9178.553681
792.386258,5625.565159,-72319.415011,-7402.059420
792.388809,17320.819043,-72012.976812,2072.576638
792.391359,-36418.132346,-72779.072310,12731.542202
792.393910,24722.878463,-77835.302597,-18357.107362
792.396461,-12583.501014,-77375.645298,296.082377
792.399012,-18653.189738,-75537.016103,-11251.130318
792.401563,20133.601622,-74311.263306,-18209.066173
792.404114,-13175.665768,-73238.729609,-6809.894666
792.406665,15396.283594,-72625.853210,-20577.725188
792.409215,-6957.935855,-74924.139704,-0.000000
792.411766,-1628.453072,-75383.797003,-6069.688724
792.414317,2072.576638,-74311.263306,4441.235652
792.416868,-23538.548956,-74924.139704,7846.182985
792.419419,2368.659014,-74311.263306,4145.153275
792.421970,-23538.548956,-73851.606007,15988.448347
792.424521,-7698.141797,-73085.510509,5773.606348
792.427072,-3997.112087,-76149.892501,2664.741391
792.429622,-6513.812290,-75383.797003,-1184.329507
792.432173,-2516.700203,-73391.948708,-2960.823768
792.434724,-16136.489536,-72625.853210,7105.977043
792.437275,-25907.207970,-70787.224015,8734.430116
792.439826,-15248.242405,-76149.892501,17320.819043
792.442377,-148.041188,-76456.330700,-11251.130318
792.444928,-7846.182985,-78601.398095,-2516.700203
792.447478,-13175.665768,-73238.729609,3256.906145
792.450029,-22798.343014,-69255.033019,13619.789333
792.452587,-22650.301825,-72012.976812,15100.201217
792.455145,-5921.647536,-75843.454302,8290.306550
792.457703,-6365.771101,-77835.302597,7846.182985
792.460261,148.041188,-76609.549800,-5921.647536
792.462819,-9030.512492,-74770.920605,-1776.494261
792.465377,-21021.848753,-70634.004916,10362.883188
792.467935,-14211.954086,-71246.881314,9030.512492
792.470493,9030.512492,-75690.235202,-4441.235652
792.473051,3256.906145,-77682.083497,-10658.965565
792.475609,15692.365970,-76609.549800,-11991.336260
792.478167,-12879.583391,-73545.167808,-4737.318029
792.480725,-740.205942,-71859.757712,-2664.741391
792.483283,-3404.947333,-72779.072310,-1924.535449
792.485841,10362.883188,-76149.892501,-9918.759623
792.488399,1480.411884,-77988.521696,-14063.912898
792.490957,3256.906145,-79061.055394,-6217.729913
792.493515,3997.112087,-70327.566716,-3997.112087
792.496073,-19245.354492,-72779.072310,10214.842000
792.498631,1184.329507,-72472.634111,-11399.171507
792.501189,6661.853478,-78907.836294,3552.988522
792.503747,-4589.276840,-76915.987999,-13915.871710
792.506305,16580.613101,-77835.302597,-10955.047942
792.508863,-7994.224174,-74158.044206,-10214.842000
792.511421,9918.759623,-74311.263306,-15988.448347
792.513979,4145.153275,-74158.044206,-8438.347739
792.516537,-4293.194464,-74770.920605,-7105.977043
792.519095,888.247130,-74770.920605,1480.411884
792.521653,-888.247130,-75843.454302,5625.565159
792.524211,-19245.354492,-75230.577904,9030.512492
792.526769,-2664.741391,-75077.358804,8142.265362
792.529327,-25463.084405,-72166.195912,14804.118840
792.531885,-14359.995275,-73391.948708,1332.370696
792.534443,2220.617826,-76456.330700,-0.000000
792.537001,-5773.606348,-74464.482406,-5477.523971
792.539559,-2368.659014,-72625.853210,2960.823768
792.542117,-17764.942608,-70940.443115,7550.100608
792.544675,-20577.725188,-70327.566716,4441.235652
792.547233,-9326.594869,-76303.111601,3701.029710
792.549791,1184.329507,-75537.016103,-5181.441594
792.552349,-5773.606348,-76609.549800,-3701.029710
792.554914,4885.359217,-69867.909418,5773.606348
792.557478,-23094.425390,-69255.033019,15692.365970
792.560042,-11399.171507,-71706.538613,11547.212695
792.562606,-12879.583391,-76456.330700,9770.718434
792.565171,-1924.535449,-78141.740796,3404.947333
792.567735,-9918.759623,-76456.330700,740.205942
792.570299,-17468.860231,-72932.291410,4145.153275
792.572864,-9326.594869,-69714.690318,12435.459826
792.575428,-6661.853478,-72779.072310,2220.617826
792.577992,20133.601622,-78141.740796,-16876.695478
792.580556,-1332.370696,-77528.864398,-10066.800811
792.583121,11251.130318,-75383.797003,-14804.118840
792.585685,-9030.512492,-71859.757712,-4293.194464
792.588249,4293.194464,-72932.291410,-3997.112087
792.590814,148.041188,-73851.606007,-6513.812290
792.593378,11695.253884,-78754.617194,-12583.501014
792.595942,5033.400406,-79214.274493,-8290.306550
792.598506,-740.205942,-75843.454302,-1480.411884
792.601071,-13471.748144,-71859.757712,8142.265362
792.603635,-7105.977043,-71553.319513,740.205942
792.606199,-148.041188,-75996.673402,-2220.617826
792.608764,12583.501014,-76456.330700,-11991.336260
792.611328,9326.594869,-76303.111601,-11547.212695
792.613892,7994.224174,-73698.386908,-15692.365970
792.616456,-740.205942,-73851.606007,-12139.377449
792.619021,3404.947333,-73391.948708,-14804.118840
792.621585,-6069.688724,-73851.606007,-7254.018232
792.624149,1776.494261,-74617.701505,-3108.864956
792.626714,3997.112087,-75690.235202,7698.141797
792.629278,-15544.324782,-75383.797003,3849.070898
792.631842,-3701.029710,-73851.606007,6513.812290
792.634406,-29164.114115,-72625.853210,15100.201217
792.636971,-4441.235652,-73545.167808,6365.771101
792.639535,-10066.800811,-76456.330700,2812.782580
792.642099,2368.659014,-75996.673402,-5181.441594
792.644664,-6365.771101,-73391.948708,740.205942
792.647228,-25463.084405,-72012.976812,7402.059420
792.649792,-5477.523971,-73851.606007,15396.283594
792.652356,-21021.848753,-73698.386908,14952.160028
792.654921,2812.782580,-78754.617194,-9770.718434
792.657489,1924.535449,-79061.055394,7550.100608
792.660058,-17616.901420,-71859.757712,-1776.494261
792.662627,-2220.617826,-70174.347617,16136.489536
792.665195,-23390.507767,-72319.415011,20133.601622
792.667764,-10807.006753,-75077.358804,2812.782580
792.670333,3997.112087,-78141.740796,6365.771101
792.672901,-5625.565159,-76609.549800,-7698.141797
792.675470,-12731.542202,-72932.291410,3701.029710
792.678039,-18357.107362,-69867.909418,8882.471304
792.680607,-6957.935855,-72319.415011,7105.977043
792.683176,20725.766376,-78754.617194,-15840.407159
792.685745,-6217.729913,-75690.235202,-9178.553681
792.688313,17172.777854,-76762.768900,-16432.571912
792.690882,-9622.677246,-72012.976812,-3849.070898
792.693451,2072.576638,-71553.319513,-5033.400406
792.696019,-0.000000,-73085.510509,-2812.782580
792.698588,2072.576638,-76915.987999,-9178.553681
792.701157,7846.182985,-78294.959896,-12583.501014
792.703725,-8882.471304,-77375.645298,10510.924376
792.706294,-11843.295072,-71246.881314,-3997.112087
792.708863,9178.553681,-72932.291410,-9030.512492
792.711431,4589.276840,-74311.263306,2072.576638
792.714000,2664.741391,-77069.207099,-11103.089130
792.716569,13027.624579,-75537.016103,-16580.613101
792.719137,-8734.430116,-75537.016103,-14063.912898
792.721706,9622.677246,-73698.386908,-15840.407159
792.724275,-296.082377,-72932.291410,-7698.141797
792.726843,-1036.288319,-74158.044206,-8290.306550
792.729412,-2664.741391,-73851.606007,1628.453072
792.731981,4441.235652,-76456.330700,6217.729913
792.734549,-15100.201217,-74158.044206,5773.606348
792.737118,-2664.741391,-75537.016103,7846.182985
792.739687,-16284.530724,-72319.415011,13767.830521
792.742255,-14508.036463,-73238.729609,7698.141797
792.744824,-4885.359217,-76303.111601,-2220.617826
792.747393,1332.370696,-75843.454302,-4441.235652
792.749961,-11843.295072,-73391.948708,148.041188
792.752530,-22650.301825,-72319.415011,6957.935855
792.755099,-21762.054695,-72012.976812,12731.542202
792.757667,-19837.519246,-77069.207099,4737.318029
792.760240,5181.441594,-78754.617194,296.082377
792.762812,-29756.278868,-78601.398095,4737.318029
792.765385,-10066.800811,-72319.415011,5329.482782
792.767957,-24722.878463,-72319.415011,26351.331535
792.770530,-14656.077652,-72779.072310,9770.718434
792.773102,-4145.153275,-76762.768900,14063.912898
792.775675,-7994.224174,-77222.426198,-3849.070898
792.778247,-2368.659014,-75537.016103,-5921.647536
792.780820,-14508.036463,-72932.291410,10362.883188
792.783392,-14359.995275,-69561.471218,7698.141797
792.785965,12435.459826,-75843.454302,-3404.947333
792.788537,2220.617826,-76915.987999,-13619.789333
792.791110,12287.418637,-76915.987999,-10510.924376
792.793682,-3997.112087,-74924.139704,-11547.212695
792.796255,2516.700203,-72166.195912,-5773.606348
792.798827,-4293.194464,-72319.415011,-444.123565
792.801400,7550.100608,-75996.673402,-9030.512492
792.803972,-2220.617826,-78141.740796,-8586.388927
792.806545,-592.164754,-79673.931792,-4145.153275
792.809117,-7105.977043,-74770.920605,-4885.359217
792.811690,2220.617826,-71553.319513,2960.823768
792.814262,-6069.688724,-73085.510509,-5477.523971
792.816835,15396.283594,-76609.549800,-7254.018232
792.819407,3997.112087,-75383.797003,-14952.160028
792.821980,7402.059420,-76762.768900,-13767.830521
792.824552,444.123565,-73698.386908,-17320.819043
792.827125,4145.153275,-74158.044206,-10510.924376
792.829697,-5921.647536,-72932.291410,-7698.141797
792.832270,-2368.659014,-74770.920605,-1480.411884
792.834842,-1776.494261,-75537.016103,5033.400406
792.837415,-12287.418637,-74924.139704,1776.494261
792.839987,-4441.235652,-73851.606007,7402.059420
792.842563,-26055.249158,-72166.195912,12583.501014
792.845139,-5773.606348,-72472.634111,9622.677246
792.847715,-13767.830521,-75690.235202,2812.782580
792.850291,-1480.411884,-76456.330700,-2960.823768
792.852867,-3997.112087,-73085.510509,-5033.400406
792.855443,-10510.924376,-70940.443115,4441.235652
792.858019,-9030.512492,-72472.634111,13767.830521
792.860595,-16876.695478,-71706.538613,11399.171507
792.863171,-740.205942,-78754.617194,-6217.729913
792.865748,5773.606348,-78754.617194,3997.112087
792.868324,-21317.931130,-72012.976812,592.164754
792.870900,-9622.677246,-70480.785816,15248.242405
792.873476,-14211.954086,-71706.538613,18653.189738
792.876052,-15396.283594,-75383.797003,4293.194464
792.878628,3256.906145,-77835.302597,3256.906145
792.881204,-9622.677246,-76609.549800,-6957.935855
792.883780,-8290.306550,-72779.072310,6069.688724
792.886356,-18061.024985,-70634.004916,11103.089130
792.888932,3849.070898,-72932.291410,-2072.576638
792.891508,12435.459826,-78141.740796,-13027.624579
792.894084,6365.771101,-77222.426198,-11399.171507
792.896660,2220.617826,-75690.235202,-12879.583391
792.899236,-2960.823768,-73085.510509,-5033.400406
792.901812,-1184.329507,-70634.004916,-2960.823768
792.904388,5477.523971,-74004.825107,-6513.812290
792.906964,7402.059420,-75996.673402,-10510.924376
792.909540,15248.242405,-79827.150892,-10510.924376
792.912116,4293.194464,-76303.111601,-4885.359217
792.914693,-740.205942,-70480.785816,6661.853478
792.917269,-4737.318029,-74617.701505,5181.441594
792.919845,17764.942608,-73851.606007,-16432.571912
792.922421,-10214.842000,-79827.150892,-3256.906145
792.924997,10658.965565,-77222.426198,-22058.137072
792.927573,2812.782580,-75690.235202,-8586.388927
792.930149,-2368.659014,-73085.510509,-10066.800811
792.932725,5181.441594,-72932.291410,-7846.182985
792.935301,-12583.501014,-74464.482406,2368.659014
792.937877,8438.347739,-75537.016103,4589.276840
792.940453,-20873.807564,-76609.549800,2368.659014
792.943029,2812.782580,-74924.139704,5329.482782
792.945607,-30644.525999,-73085.510509,14508.036463
792.948184,-3997.112087,-71859.757712,9474.636058
792.950762,-2664.741391,-75230.577904,2664.741391
792.953340,-6069.688724,-76762.768900,-3701.029710
792.955918,-5921.647536,-73545.167808,-1924.535449
792.958495,-21021.848753,-73851.606007,6069.688724
792.961073,-26795.455100,-72012.976812,14359.995275
792.963651,-17468.860231,-75996.673402,8882.471304
792.966228,-3256.906145,-74464.482406,-2072.576638
792.968806,-25611.125593,-78754.617194,1776.494261
792.971384,-11991.336260,-72625.853210,7994.224174
792.973961,-26647.413912,-72625.853210,24426.796086
792.976539,-14359.995275,-73085.510509,10955.047942
792.979117,-6957.935855,-76303.111601,16580.613101
792.981695,-6365.771101,-76456.330700,-6957.935855
792.984272,-2960.823768,-75383.797003,-2960.823768
792.986850,-14359.995275,-72472.634111,9474.636058
792.989428,-13027.624579,-70480.785816,8438.347739
792.992005,16728.654289,-76762.768900,-4589.276840
792.994583,-1332.370696,-75843.454302,-10807.006753
792.997161,12731.542202,-77069.207099,-12139.377449
792.999738,-6809.894666,-75383.797003,-9622.677246
793.002316,4145.153275,-73085.510509,-5477.523971
793.004894,-6661.853478,-72012.976812,-592.164754
793.007471,7994.224174,-75537.016103,-8734.430116
793.010049,2664.741391,-79214.274493,-6957.935855
793.012627,-148.041188,-78448.178995,-12879.583391
793.015205,4441.235652,-74617.701505,11547.212695
793.017782,-35677.926404,-69408.252119,4145.153275
793.020360,36566.173535,-77222.426198,-13323.706956
793.022938,-23538.548956,-74004.825107,-1924.535449
793.025515,11547.212695,-79367.493593,-19245.354492
793.028093,18505.148550,-75690.235202,-18505.148550
793.030671,-11103.089130,-74464.482406,-10214.842000
793.033248,12435.459826,-72166.195912,-12583.501014
793.035826,-11103.089130,-74004.825107,-1480.411884
793.038404,1184.329507,-72779.072310,-888.247130
793.040982,1036.288319,-77375.645298,3997.112087
793.043559,-20281.642811,-75537.016103,7846.182985
793.046137,-14508.036463,-73238.729609,3108.864956
793.048714,-9918.759623,-72625.853210,19097.313304
793.051293,-16136.489536,-72166.195912,2368.659014
793.053872,5181.441594,-75996.673402,1036.288319
793.056451,-7994.224174,-74770.920605,-9622.677246
793.059030,1036.288319,-73698.386908,592.164754
793.061609,-19245.354492,-68795.375720,4145.153275
793.064188,-21614.013506,-72319.415011,18653.189738
793.066767,-1332.370696,-77375.645298,1184.329507
793.069346,444.123565,-78448.178995,148.041188
793.071925,-6809.894666,-73698.386908,-0.000000
793.074504,-9918.759623,-68182.499322,10510.924376
793.077083,-25018.960840,-70634.004916,14508.036463
793.079662,-7254.018232,-73085.510509,14063.912898
793.082241,-6069.688724,-77375.645298,3849.070898
793.084820,3108.864956,-77069.207099,-8586.388927
793.087399,-19393.395680,-72932.291410,7105.977043
793.089978,-10658.965565,-70940.443115,10362.883188
793.092557,-3404.947333,-72779.072310,-888.247130
793.095136,17616.901420,-76915.987999,-14508.036463
793.097715,-6217.729913,-75537.016103,-9030.512492
793.100294,11695.253884,-77682.083497,-17764.942608
793.102873,-740.205942,-72625.853210,-5181.441594
793.105452,-5329.482782,-71859.757712,-3849.070898
793.108031,13323.706956,-72779.072310,-5921.647536
793.110610,-3849.070898,-77528.864398,-5625.565159
793.113189,296.082377,-77528.864398,-15840.407159
793.115768,2960.823768,-77988.521696,-2812.782580
793.118347,-4885.359217,-70787.224015,4737.318029
793.120926,-6809.894666,-69867.909418,7550.100608
793.123505,19985.560434,-78448.178995,-8290.306550
793.126085,4441.235652,-74464.482406,-13619.789333
793.128664,7994.224174,-76762.768900,-21021.848753
793.131243,10066.800811,-72779.072310,-16136.489536
793.133822,-7402.059420,-73391.948708,-7846.182985
793.136401,5773.606348,-72319.415011,-7994.224174
793.138980,-9918.759623,-73698.386908,7994.224174
793.141559,3997.112087,-76915.987999,740.205942
793.144138,-16136.489536,-75690.235202,6809.894666
793.146717,-7550.100608,-76149.892501,7698.141797
793.149296,-17912.983796,-71400.100414,16284.530724
793.151876,-19541.436869,-73545.167808,8734.430116
793.154456,2368.659014,-74924.139704,-1036.288319
793.157037,-3256.906145,-76456.330700,-3256.906145
793.159617,-7698.141797,-73545.167808,-148.041188
793.162197,-13175.665768,-70787.224015,2220.617826
793.164777,-10066.800811,-72012.976812,2812.782580
793.167358,-6217.729913,-75537.016103,9178.553681
793.169938,888.247130,-77682.083497,-3849.070898
793.172518,-6661.853478,-75383.797003,296.082377
793.175098,-17616.901420,-72319.415011,11547.212695
793.177679,-22946.384202,-74770.920605,16136.489536
793.180259,-14063.912898,-73545.167808,9770.718434
793.182839,-296.082377,-76456.330700,1628.453072
793.185420,-7698.141797,-75383.797003,-5625.565159
793.188000,-7550.100608,-73545.167808,5033.400406
793.190580,-15692.365970,-71706.538613,10955.047942
793.193160,3404.947333,-72932.291410,-2072.576638
793.195741,10807.006753,-76915.987999,-13175.665768
793.198321,8734.430116,-75383.797003,-9918.759623
793.200901,-1480.411884,-74770.920605,-13767.830521
793.203481,2516.700203,-74004.825107,-7254.018232
793.206062,-3997.112087,-71859.757712,-5329.482782
793.208642,12435.459826,-73545.167808,-4885.359217
793.211222,7846.182985,-75230.577904,-5921.647536
793.213803,9326.594869,-78294.959896,-12583.501014
793.216383,14211.954086,-75230.577904,-5921.647536
793.218963,-31532.773129,-72012.976812,9622.677246
793.221543,27387.619854,-75077.358804,-12287.418637
793.224124,-14952.160028,-74464.482406,-1036.288319
793.226704,10362.883188,-78294.959896,-18801.230927
793.229284,8438.347739,-76303.111601,-13915.871710
793.231865,-1036.288319,-75690.235202,-14063.912898
793.234445,8142.265362,-71706.538613,-10066.800811
793.237025,-16136.489536,-73391.948708,3997.112087
793.239605,3552.988522,-72932.291410,1332.370696
793.242186,-1924.535449,-77528.864398,2072.576638
793.244766,-12435.459826,-75383.797003,6513.812290
793.247346,-19541.436869,-73698.386908,6069.688724
793.249926,-11547.212695,-72472.634111,18209.066173
793.252507,-19689.478057,-73085.510509,5477.523971
793.255059,1036.288319,-76303.111601,-444.123565
793.257611,-6957.935855,-73698.386908,-7550.100608
793.260163,-1628.453072,-73238.729609,2664.741391
793.262715,-20577.725188,-69714.690318,1332.370696
793.265267,-7698.141797,-72932.291410,17468.860231
793.267819,-10807.006753,-76149.892501,-888.247130
793.270371,1628.453072,-79520.712692,2072.576638
793.272923,-21169.889941,-73391.948708,1628.453072
793.275476,-14656.077652,-67569.622924,7846.182985
793.278028,-21021.848753,-70327.566716,15544.324782
793.280580,-6809.894666,-75230.577904,8586.388927
793.283132,-4145.153275,-76762.768900,1332.370696
793.285684,-4145.153275,-76609.549800,-4589.276840
793.288236,-11991.336260,-72012.976812,7550.100608
793.290788,-12287.418637,-72779.072310,8142.265362
793.293340,8290.306550,-75077.358804,-9622.677246
793.295892,1332.370696,-75383.797003,-11251.130318
793.298444,11251.130318,-76609.549800,-14508.036463
793.300997,-2368.659014,-76303.111601,-10214.842000
793.303549,1332.370696,-74464.482406,-5921.647536
793.306101,-2072.576638,-72472.634111,-2664.741391
793.308653,7550.100608,-73851.606007,-5477.523971
793.311205,5477.523971,-76456.330700,-7550.100608
793.313757,2812.782580,-79367.493593,-8142.265362
793.316309,-4589.276840,-71246.881314,2072.576638
793.318861,-10214.842000,-72319.415011,-2516.700203
793.321413,21317.931130,-74311.263306,-6217.729913
793.323965,-2072.576638,-75077.358804,-9622.677246
793.326517,20873.807564,-75690.235202,-23094.425390
793.329070,444.123565,-75230.577904,-15544.324782
793.331622,-888.247130,-73698.386908,-12879.583391
793.334174,-6069.688724,-72625.853210,-2516.700203
793.336726,-4293.194464,-73851.606007,4145.153275
793.339278,6809.894666,-75230.577904,5181.441594
793.341830,-14804.118840,-75843.454302,8142.265362
793.344382,-3701.029710,-76303.111601,7105.977043
793.346934,-29904.320057,-73391.948708,14804.118840
793.349486,-19097.313304,-73238.729609,6217.729913
793.352038,1036.288319,-75230.577904,148.041188
793.354591,-2516.700203,-75383.797003,-3404.947333
793.357149,-3108.864956,-73851.606007,-1628.453072
793.359707,-14656.077652,-70021.128517,2368.659014
793.362265,-24722.878463,-74464.482406,12139.377449
793.364823,-2960.823768,-74004.825107,2516.700203
793.367381,-4737.318029,-79520.712692,10658.965565
793.369939,-21317.931130,-77528.864398,8290.306550
793.372497,1924.535449,-69714.690318,6513.812290
793.375055,-25907.207970,-71093.662214,18209.066173
793.377613,-12287.418637,-72779.072310,6365.771101
793.380171,-2960.823768,-77069.207099,6069.688724
793.382729,-10955.047942,-75996.673402,-5921.647536
793.385287,-1036.288319,-72166.195912,4589.276840
793.387845,-14359.995275,-73238.729609,10214.842000
793.390403,12287.418637,-75537.016103,-10362.883188
793.392962,-1776.494261,-75077.358804,-9474.636058
793.395520,10955.047942,-74924.139704,-14508.036463
793.398078,-3404.947333,-75230.577904,-10807.006753
793.400636,6809.894666,-75690.235202,-7994.224174
793.403194,-5181.441594,-72166.195912,-4293.194464
793.405752,-296.082377,-74770.920605,-6069.688724
793.408310,9030.512492,-77988.521696,-592.164754
793.410868,-1184.329507,-75843.454302,1184.329507
793.413426,-592.164754,-74158.044206,-6513.812290
793.415984,7402.059420,-72932.291410,6661.853478
793.418542,8438.347739,-71400.100414,-10658.965565
793.421100,7846.182985,-76456.330700,-9622.677246
793.423658,4441.235652,-75690.235202,-19245.354492
793.426216,7402.059420,-75383.797003,-19097.313304
793.428775,-1776.494261,-74311.263306,-10214.842000
793.431333,592.164754,-72625.853210,-6661.853478
793.433891,-8734.430116,-72166.195912,2516.700203
793.436449,9178.553681,-76303.111601,4885.359217
793.439007,-21169.889941,-75996.673402,10362.883188
793.441565,740.205942,-77528.864398,7402.059420
793.444123,-17468.860231,-72932.291410,15692.365970
793.446681,-20133.601622,-73238.729609,6217.729913
793.449239,2960.823768,-74924.139704,444.123565
793.451797,-5625.565159,-75383.797003,-3404.947333
793.454355,-9178.553681,-73238.729609,-1480.411884
793.456913,-8882.471304,-73085.510509,6217.729913
793.459477,-3552.988522,-72166.195912,3552.988522
793.462040,-25759.166782,-75690.235202,20429.683999
793.464603,-23982.672521,-78601.398095,-3552.988522
793.467166,13323.706956,-75077.358804,2516.700203
793.469729,-39082.873738,-74311.263306,18653.189738
793.472293,-8734.430116,-71859.757712,13175.665768
793.474856,-18653.189738,-75537.016103,18801.230927
793.477419,-6365.771101,-75537.016103,-2664.741391
793.479982,-8142.265362,-77835.302597,5625.565159
793.482546,-13323.706956,-73391.948708,9326.594869
793.485109,-2072.576638,-73545.167808,4737.318029
793.487672,8586.388927,-76456.330700,-9770.718434
793.490235,-6365.771101,-73545.167808,-10066.800811
793.492798,14804.118840,-75843.454302,-14804.118840
793.495362,-8734.430116,-74311.263306,-8734.430116
793.497925,10807.006753,-75537.016103,-8290.306550
793.500488,3404.947333,-74158.044206,-5477.523971
793.503051,-3552.988522,-74617.701505,-6365.771101
793.505615,11251.130318,-77988.521696,-444.123565
793.508178,-13323.706956,-75690.235202,-4737.318029
793.510741,8734.430116,-73698.386908,-740.205942
793.513304,-7550.100608,-71553.319513,-2960.823768
793.515868,21169.889941,-77069.207099,-4885.359217
793.518431,3256.906145,-75230.577904,-14656.077652
793.520994,10955.047942,-75230.577904,-19245.354492
793.523557,4145.153275,-74617.701505,-15840.407159
793.526120,2664.741391,-72932.291410,-13175.665768
793.528684,-11103.089130,-72012.976812,-2220.617826
793.531247,5181.441594,-74158.044206,2960.823768
793.533810,-2664.741391,-74311.263306,5477.523971
793.536373,-10510.924376,-77069.207099,7994.224174
793.538937,-14804.118840,-74770.920605,10362.883188
793.541500,-15988.448347,-72319.415011,14508.036463
793.544063,-13767.830521,-74158.044206,5033.400406
793.546626,1332.370696,-75690.235202,-740.205942
793.549190,1036.288319,-74311.263306,-7402.059420
793.551753,-11251.130318,-73085.510509,3997.112087
793.554316,-22058.137072,-70787.224015,1480.411884
793.556879,-9178.553681,-74924.139704,19393.395680
793.559442,-19393.395680,-74770.920605,1776.494261
793.561981,740.205942,-78601.398095,-4885.359217
793.564519,-7254.018232,-71553.319513,13619.789333
793.567058,-22798.343014,-71246.881314,10807.006753
793.569596,-6809.894666,-70940.443115,17912.983796
793.572135,-18209.066173,-76149.892501,7698.141797
793.574673,8882.471304,-76456.330700,-2516.700203
793.577211,-7698.141797,-74004.825107,11991.336260
793.579750,-11991.336260,-71246.881314,4885.359217
793.582288,10066.800811,-76149.892501,-1628.453072
793.584827,6069.688724,-75383.797003,-16136.489536
793.587365,1184.329507,-72932.291410,-9178.553681
793.589904,2220.617826,-75383.797003,-14359.995275
793.592442,2072.576638,-74770.920605,-8142.265362
793.594980,-1628.453072,-74924.139704,-5921.647536
793.597519,2072.576638,-73698.386908,-7105.977043
793.600057,3552.988522,-77375.645298,296.082377
793.602596,3108.864956,-76303.111601,-5773.606348
793.605134,-13175.665768,-74617.701505,1480.411884
793.607672,1036.288319,-71859.757712,-14508.036463
793.610211,6957.935855,-76303.111601,4293.194464
793.612749,-1332.370696,-75077.358804,-14359.995275
793.615288,15100.201217,-77069.207099,-21910.095883
793.617826,1480.411884,-75996.673402,-12139.377449
793.620365,-2072.576638,-73238.729609,-15692.365970
793.622903,2368.659014,-72166.195912,-2960.823768
793.625441,-14063.912898,-73238.729609,3849.070898
793.627980,11843.295072,-75843.454302,3552.988522
793.630518,-24722.878463,-77069.207099,12879.583391
793.633057,-8142.265362,-75383.797003,8290.306550
793.635595,-15988.448347,-71706.538613,15396.283594
793.638134,-22798.343014,-73238.729609,7698.141797
793.640672,2812.782580,-74617.701505,-0.000000
793.643210,-3552.988522,-76456.330700,-2812.782580
793.645749,-18209.066173,-73238.729609,-1036.288319
793.648287,-22354.219448,-72625.853210,10362.883188
793.650826,-28127.825796,-75077.358804,13619.789333
793.653364,-13471.748144,-76149.892501,8586.388927
793.655902,-10066.800811,-79367.493593,740.205942
793.658441,-14211.954086,-75383.797003,10658.965565
793.660979,-17320.819043,-72472.634111,15988.448347
793.663527,-15544.324782,-72625.853210,15692.365970
793.666074,-16876.695478,-74924.139704,11695.253884
793.668621,-148.041188,-76456.330700,-1036.288319
793.671169,-8290.306550,-73085.510509,7994.224174
793.673716,-12435.459826,-73238.729609,6365.771101
793.676263,12139.377449,-74770.920605,-3404.947333
793.678811,3997.112087,-76762.768900,-13323.706956
793.681358,4293.194464,-72779.072310,-10066.800811
793.683905,-3701.029710,-74158.044206,-12731.542202
793.686452,8438.347739,-74464.482406,-9474.636058
793.689000,-3701.029710,-75077.358804,-7846.182985
793.691547,16728.654289,-75077.358804,-8586.388927
793.694094,4737.318029,-72625.853210,-6217.729913
793.696642,-9030.512492,-75996.673402,-4145.153275
793.699189,22206.178260,-74617.701505,-14063.912898
793.701736,-11547.212695,-72779.072310,15396.283594
793.704284,7105.977043,-72319.415011,-14211.954086
793.706831,15840.407159,-76762.768900,-2812.782580
793.709378,-8734.430116,-75383.797003,-17024.736666
793.711926,21317.931130,-75537.016103,-22798.343014
793.714473,-10066.800811,-73391.948708,-8882.471304
793.717020,7254.018232,-72472.634111,-13471.748144
793.719567,-12583.501014,-71706.538613,7994.224174
793.722115,9326.594869,-76149.892501,3108.864956
793.724662,-18505.148550,-75996.673402,11695.253884
793.727209,-16876.695478,-76609.549800,9178.553681
793.729757,-10807.006753,-71859.757712,15692.365970
793.732304,-23242.466579,-73238.729609,6513.812290
793.734851,296.082377,-74158.044206,-1628.453072
793.737399,-296.082377,-76149.892501,-2516.700203
793.739946,-14063.912898,-72472.634111,-1924.535449
793.742493,-23390.507767,-71400.100414,4441.235652
793.745041,-13619.789333,-74617.701505,17320.819043
793.747588,-7994.224174,-77682.083497,2220.617826
793.750135,2220.617826,-75383.797003,-6365.771101
793.752683,-13027.624579,-73851.606007,15100.201217
793.755230,-25315.043216,-70787.224015,11103.089130
793.757777,-11843.295072,-71706.538613,13471.748144
793.760324,-18949.272115,-75843.454302,7846.182985
793.762872,1036.288319,-77069.207099,-3404.947333
793.765427,-1628.453072,-73545.167808,10362.883188
793.767982,-16876.695478,-72625.853210,5181.441594
793.770537,18209.066173,-75537.016103,-6957.935855
793.773091,-5033.400406,-75230.577904,-9770.718434
793.775646,14952.160028,-73391.948708,-13175.665768
793.778201,-4441.235652,-75383.797003,-9030.512492
793.780756,9030.512492,-74924.139704,-11991.336260
793.783311,-4885.359217,-74617.701505,-2516.700203
793.785866,4737.318029,-75230.577904,-7254.018232
793.788421,296.082377,-73238.729609,-7402.059420
793.790976,-5033.400406,-78754.617194,-7550.100608
793.793531,-592.164754,-73545.167808,-2072.576638
793.796086,-9326.594869,-73698.386908,-740.205942
793.798641,22798.343014,-74617.701505,-9030.512492
793.801196,-0.000000,-76149.892501,-10510.924376
793.803750,12879.583391,-76609.549800,-23538.548956
793.806305,4293.194464,-74617.701505,-16580.613101
793.808860,296.082377,-73238.729609,-14359.995275
793.811415,-7550.100608,-72012.976812,-1776.494261
793.813970,2220.617826,-73238.729609,6513.812290
793.816525,-4737.318029,-75077.358804,3256.906145
793.819080,-5181.441594,-77375.645298,8142.265362
793.821635,-27387.619854,-75230.577904,13767.830521
793.824190,-3552.988522,-72472.634111,9178.553681
793.826745,-13767.830521,-73851.606007,9178.553681
793.829300,-3552.988522,-75077.358804,-4293.194464
793.831855,9474.636058,-73391.948708,-4145.153275
793.834410,-19985.560434,-70940.443115,-1036.288319
793.836964,-14508.036463,-72012.976812,5477.523971
793.839519,-6365.771101,-73851.606007,9030.512492
793.842074,-7550.100608,-77835.302597,3108.864956
793.844629,-20281.642811,-75996.673402,1036.288319
793.847184,2072.576638,-73391.948708,12583.501014
793.849739,-23094.425390,-70940.443115,14656.077652
793.852294,-14063.912898,-74004.825107,8586.388927
793.854849,-6217.729913,-75843.454302,8586.388927
793.857404,-18949.272115,-75230.577904,1628.453072
793.859959,-740.205942,-73085.510509,8586.388927
793.862514,-4441.235652,-73851.606007,-888.247130
793.865069,17024.736666,-76915.987999,-16876.695478
793.867629,-14063.912898,-72932.291410,-9622.677246
793.870190,13323.706956,-74158.044206,-19245.354492
793.872750,-2960.823768,-73391.948708,-6365.771101
793.875311,1332.370696,-75230.577904,-9770.718434
793.877871,6809.894666,-74464.482406,-6957.935855
793.880432,1332.370696,-74770.920605,-3552.988522
793.882992,-2516.700203,-76762.768900,2368.659014
793.885553,-14952.160028,-74617.701505,-2960.823768
793.888113,592.164754,-74311.263306,-7846.182985
793.890674,2368.659014,-75537.016103,2368.659014
793.893234,6513.812290,-76456.330700,-8438.347739
793.895795,17468.860231,-77375.645298,-16284.530724
793.898355,3108.864956,-77222.426198,-13915.871710
793.900916,-4145.153275,-73545.167808,-17320.819043
793.903476,-740.205942,-72779.072310,-3701.029710
793.906037,-6957.935855,-72166.195912,3404.947333
793.908597,8290.306550,-75537.016103,3256.906145
793.911158,-19393.395680,-76915.987999,14952.160028
793.913718,-5773.606348,-76915.987999,8290.306550
793.916279,-23538.548956,-73698.386908,19393.395680
793.918839,-28719.990550,-73085.510509,5329.482782
793.921400,6957.935855,-74770.920605,-740.205942
793.923961,-2368.659014,-74004.825107,-3552.988522
793.926521,1628.453072,-72319.415011,-4885.359217
793.929082,-7402.059420,-73851.606007,15100.201217
793.931642,-33013.185013,-72779.072310,13323.706956
793.934203,2516.700203,-78294.959896,9770.718434
793.936763,-6809.894666,-79520.712692,11991.336260
793.939324,-18209.066173,-72932.291410,2664.741391
793.941884,-2960.823768,-72012.976812,17616.901420
793.944445,-26943.496289,-71400.100414,7254.018232
793.947005,296.082377,-75537.016103,6217.729913
793.949566,-25463.084405,-75230.577904,3997.112087
793.952126,3256.906145,-73391.948708,7105.977043
793.954687,-444.123565,-74158.044206,9770.718434
793.957247,19097.313304,-77222.426198,-17024.736666
793.959808,-8142.265362,-72779.072310,-11103.089130
793.962368,11251.130318,-74770.920605,-17024.736666
793.964929,-5625.565159,-71859.757712,-9918.759623
793.967489,6957.935855,-75690.235202,-7550.100608
793.970055,3849.070898,-74004.825107,-4293.194464
793.972620,11695.253884,-77528.864398,-5773.606348
793.975185,-0.000000,-74464.482406,-14063.912898
793.977751,23538.548956,-76762.768900,-296.082377
793.980316,-20429.683999,-72166.195912,14508.036463
793.982881,18801.230927,-72012.976812,-16432.571912
793.985447,8586.388927,-75996.673402,-4145.153275
793.988012,8734.430116,-76609.549800,-23834.631332
793.990577,11695.253884,-74924.139704,-15692.365970
793.993143,-14508.036463,-73238.729609,-10214.842000
793.995708,6069.688724,-71553.319513,-12139.377449
793.998273,-9030.512492,-71400.100414,9030.512492
794.000839,10362.883188,-75230.577904,-148.041188
794.003404,-16580.613101,-76303.111601,13619.789333
794.005969,-7698.141797,-77682.083497,8586.388927
794.008535,-20429.683999,-72472.634111,14804.118840
794.011100,-26203.290347,-74004.825107,3997.112087
794.013665,9178.553681,-73545.167808,-4589.276840
794.016231,-1628.453072,-74464.482406,-3701.029710
794.018796,-4293.194464,-69714.690318,-8882.471304
794.021361,-15988.448347,-72012.976812,16136.489536
794.023927,-15692.365970,-71706.538613,296.082377
794.026492,-11103.089130,-75690.235202,1924.535449
794.029057,-13323.706956,-78294.959896,1628.453072
794.031623,-4589.276840,-72012.976812,9770.718434
794.034188,-19245.354492,-72625.853210,19097.313304
794.036753,-20429.683999,-72166.195912,10807.006753
794.039319,-6809.894666,-77222.426198,7254.018232
794.041884,-18061.024985,-75077.358804,4589.276840
794.044449,-1036.288319,-73851.606007,7254.018232
794.047015,-5773.606348,-73391.948708,3997.112087
794.049580,17024.736666,-75996.673402,-15544.324782
794.052150,-1776.494261,-73698.386908,-9770.718434
794.054720,1480.411884,-73391.948708,-17172.777854
794.057290,5181.441594,-73851.606007,-8882.471304
794.059859,-3552.988522,-74924.139704,-6809.894666
794.062429,11399.171507,-75537.016103,-6957.935855
794.064999,1628.453072,-76762.768900,-1924.535449
794.067568,5773.606348,-76149.892501,-7254.018232
794.070138,-5921.647536,-73085.510509,2072.576638
794.072708,-6661.853478,-72472.634111,-10362.883188
794.075278,22946.384202,-74311.263306,-4885.359217
794.077847,5625.565159,-75996.673402,-16136.489536
794.080417,20429.683999,-75996.673402,-19245.354492
