#time,accel_x,accel_y,accel_z
1558.682581,-746.560651,0.000000,-9073.583299
1558.685152,-708.275490,57.427742,-9035.298138
1558.687724,-708.275490,19.142581,-9016.155557
1558.690296,-363.709035,-823.130974,-9111.868461
1558.692868,-421.136778,-2009.970984,-8977.870395
1558.695440,-497.707101,918.843878,-8997.012976
1558.698012,-382.851616,-478.564520,-8939.585234
1558.700583,-899.701298,-153.140646,-8977.870395
1558.703155,555.134843,-937.986459,-9226.723946
1558.705727,765.703232,-880.558717,-9131.011042
1558.708299,1799.402595,-1091.127106,-9226.723946
1558.710871,593.420005,-765.703232,-9054.440718
1558.713443,-803.988394,-287.138712,-8901.300072
1558.716015,-2086.541307,-497.707101,-8901.300072
1558.718586,-1971.685822,1186.840010,-9054.440718
1558.721158,-1512.263883,-172.283227,-9245.866526
1558.723730,-803.988394,937.986459,-9054.440718
1558.726302,-191.425808,-689.132909,-9054.440718
1558.728874,-153.140646,1071.984525,-9016.155557
1558.731446,-325.423874,325.423874,-9035.298138
1558.734018,-1110.269686,1071.984525,-8920.442653
1558.736589,-1588.834206,1033.699363,-8939.585234
1558.739161,-1837.687757,-191.425808,-9073.583299
1558.741733,-1531.406464,1014.556782,-8997.012976
1558.744305,-765.703232,0.000000,-9054.440718
1558.746877,-612.562586,1703.689691,-8920.442653
1558.749449,-535.992262,-669.990328,-9245.866526
1558.752020,-1071.984525,-497.707101,-9054.440718
1558.754592,-2660.818731,-95.712904,-9073.583299
1558.757164,-1205.982590,287.138712,-8997.012976
1558.759736,-344.566454,-172.283227,-9111.868461
1558.762308,-1761.117434,1665.404530,-9111.868461
1558.764880,-650.847747,631.705166,-9207.581365
1558.767452,-918.843878,287.138712,-8671.589102
1558.770023,-1263.410333,1014.556782,-9150.153622
1558.772595,-2048.256146,-153.140646,-9073.583299
1558.775167,-2029.113565,1167.697429,-8805.587168
1558.777739,-1301.695494,-19.142581,-9150.153622
1558.780311,-1014.556782,612.562586,-9111.868461
1558.782883,-497.707101,1397.408398,-9035.298138
1558.785455,-1244.267752,478.564520,-8997.012976
1558.788028,-957.129040,363.709035,-8997.012976
1558.790600,-1244.267752,-880.558717,-9073.583299
1558.793173,-937.986459,803.988394,-9016.155557
1558.795746,-727.418070,995.414202,-8977.870395
1558.798318,-1588.834206,2373.680019,-8824.729749
1558.800891,-1397.408398,344.566454,-8997.012976
1558.803463,-1359.123237,-2297.109696,-9073.583299
1558.806036,-842.273555,-1914.258080,-9341.579430
1558.808609,95.712904,2947.957443,-9073.583299
1558.811181,976.271621,-2048.256146,-8882.157491
1558.813754,880.558717,535.992262,-8671.589102
1558.816326,-382.851616,-478.564520,-9169.296203
1558.818899,-842.273555,-1818.545176,-9303.294269
1558.821471,-574.277424,-421.136778,-9035.298138
1558.824044,-153.140646,-976.271621,-9054.440718
1558.826617,-401.994197,-210.568389,-9092.725880
1558.829189,459.421939,-133.998066,-9111.868461
1558.831762,-421.136778,861.416136,-8977.870395
1558.834334,-784.845813,-1205.982590,-9131.011042
1558.836907,-555.134843,-1244.267752,-9016.155557
1558.839480,-784.845813,-1071.984525,-9207.581365
1558.842052,-421.136778,-555.134843,-9150.153622
1558.844625,-19.142581,76.570323,-9054.440718
1558.847197,555.134843,-191.425808,-9092.725880
1558.849770,-612.562586,-1416.550979,-9399.007173
1558.852342,-248.853550,-2679.961312,-9111.868461
1558.854915,-2277.967115,861.416136,-8958.727814
1558.857488,-287.138712,401.994197,-9092.725880
1558.860060,-555.134843,1148.554848,-8939.585234
1558.862633,210.568389,-1320.838075,-9016.155557
1558.865205,-823.130974,-746.560651,-9016.155557
1558.867778,-1052.841944,-229.710970,-9131.011042
1558.870350,-191.425808,-574.277424,-9418.149754
1558.872923,287.138712,-229.710970,-9226.723946
1558.875496,535.992262,-1684.547110,-9131.011042
1558.878068,210.568389,114.855485,-8863.014910
1558.880641,-133.998066,-1110.269686,-9111.868461
1558.883213,-1282.552914,593.420005,-9092.725880
1558.885786,-1282.552914,-842.273555,-9035.298138
1558.888342,-1110.269686,823.130974,-9054.440718
1558.890898,172.283227,-1569.691626,-9131.011042
1558.893454,95.712904,-535.992262,-9188.438784
1558.896010,459.421939,-1263.410333,-9303.294269
1558.898566,-57.427742,1607.976787,-8901.300072
1558.901122,-19.142581,-1761.117434,-9092.725880
1558.903678,-421.136778,287.138712,-9035.298138
1558.906234,-1454.836141,287.138712,-8977.870395
1558.908790,-2105.683888,1091.127106,-8920.442653
1558.911346,-765.703232,-325.423874,-8863.014910
1558.913902,-1359.123237,0.000000,-9169.296203
1558.916458,-1359.123237,363.709035,-9207.581365
1558.919014,-689.132909,2316.252277,-8882.157491
1558.921570,-574.277424,363.709035,-8843.872330
1558.924126,-631.705166,267.996131,-9035.298138
1558.926682,-899.701298,-1473.978722,-9169.296203
1558.929238,-1531.406464,19.142581,-9016.155557
1558.931794,-1703.689691,2584.248408,-8863.014910
1558.934350,-1952.543242,1225.125171,-8958.727814
1558.936906,-1359.123237,976.271621,-8977.870395
1558.939462,-1167.697429,-1033.699363,-9169.296203
1558.942018,-650.847747,229.710970,-9016.155557
1558.944574,-459.421939,287.138712,-8939.585234
1558.947130,-1014.556782,1435.693560,-9092.725880
1558.949686,-1741.974853,-1033.699363,-9226.723946
1558.952242,-2201.396792,2124.826469,-8843.872330
1558.954798,-631.705166,-689.132909,-9111.868461
1558.957354,-38.285162,1952.543242,-8939.585234
1558.959910,1033.699363,1416.550979,-9131.011042
1558.962466,-1627.119368,-746.560651,-8824.729749
1558.965022,-1569.691626,1320.838075,-8863.014910
1558.967578,-1646.261949,-1531.406464,-9092.725880
1558.970134,-2105.683888,2163.111630,-8882.157491
1558.972690,-593.420005,-421.136778,-9073.583299
1558.975246,-1320.838075,2392.822600,-8709.874264
1558.977802,-727.418070,478.564520,-9016.155557
1558.980358,-1454.836141,937.986459,-8977.870395
1558.982914,-689.132909,-516.849682,-9054.440718
1558.985470,-957.129040,-612.562586,-9188.438784
1558.988026,-976.271621,1741.974853,-9054.440718
1558.990585,-784.845813,861.416136,-8939.585234
1558.993144,-1646.261949,2545.963246,-8767.302006
1558.995702,-1493.121302,-191.425808,-9035.298138
1558.998261,-1301.695494,-1607.976787,-9169.296203
1559.000820,-880.558717,-1301.695494,-9322.436850
1559.003379,-478.564520,2565.105827,-8958.727814
1559.005937,612.562586,1569.691626,-8824.729749
1559.008496,650.847747,-861.416136,-8958.727814
1559.011055,344.566454,-401.994197,-9418.149754
1559.013613,-229.710970,-2813.959378,-9226.723946
1559.016172,-1052.841944,421.136778,-8863.014910
1559.018731,-708.275490,-899.701298,-8977.870395
1559.021289,-1071.984525,306.281293,-9054.440718
1559.023848,306.281293,-1014.556782,-9226.723946
1559.026407,-516.849682,306.281293,-9131.011042
1559.028965,-287.138712,-784.845813,-9169.296203
1559.031524,-210.568389,-899.701298,-8977.870395
1559.034083,-727.418070,-957.129040,-9111.868461
1559.036641,-76.570323,-363.709035,-9169.296203
1559.039200,-382.851616,-1493.121302,-9169.296203
1559.041759,57.427742,727.418070,-9016.155557
1559.044317,-325.423874,344.566454,-9054.440718
1559.046876,612.562586,-727.418070,-8997.012976
1559.049435,-1071.984525,-76.570323,-8901.300072
1559.051993,-861.416136,861.416136,-9111.868461
1559.054552,-19.142581,-1148.554848,-9169.296203
1559.057111,-631.705166,-803.988394,-8882.157491
1559.059669,-574.277424,-746.560651,-9188.438784
1559.062228,-19.142581,-1071.984525,-8977.870395
1559.064787,382.851616,555.134843,-9188.438784
1559.067345,1148.554848,-1225.125171,-9360.722011
1559.069904,76.570323,-497.707101,-8882.157491
1559.072463,-267.996131,-995.414202,-9073.583299
1559.075022,-1435.693560,478.564520,-9054.440718
1559.077580,-746.560651,-267.996131,-9169.296203
1559.080139,-1148.554848,-440.279358,-9111.868461
1559.082698,-344.566454,-899.701298,-9169.296203
1559.085256,114.855485,-1588.834206,-9169.296203
1559.087815,708.275490,708.275490,-8977.870395
1559.090374,19.142581,-535.992262,-9150.153622
1559.092935,-210.568389,-76.570323,-9073.583299
1559.095496,133.998066,-803.988394,-8977.870395
1559.098057,-2622.533570,2163.111630,-9111.868461
1559.100618,-2909.672282,306.281293,-9035.298138
1559.103179,-1837.687757,459.421939,-9111.868461
1559.105741,-1167.697429,-631.705166,-9169.296203
1559.108302,-574.277424,2297.109696,-9054.440718
1559.110863,-937.986459,593.420005,-8958.727814
1559.113424,-574.277424,765.703232,-8977.870395
1559.115985,-478.564520,-861.416136,-9150.153622
1559.118546,-861.416136,-363.709035,-9111.868461
1559.121108,-1320.838075,57.427742,-8997.012976
1559.123669,-2029.113565,2947.957443,-8901.300072
1559.126230,-1665.404530,669.990328,-9016.155557
1559.128791,-1684.547110,172.283227,-9073.583299
1559.131352,-746.560651,-803.988394,-9169.296203
1559.133913,-612.562586,-191.425808,-8958.727814
1559.136474,-1167.697429,-38.285162,-9188.438784
1559.139036,-1033.699363,38.285162,-9092.725880
1559.141597,-2526.820666,1320.838075,-8958.727814
1559.144158,-784.845813,-555.134843,-9131.011042
1559.146719,-1512.263883,248.853550,-9016.155557
1559.149280,574.277424,2450.250342,-9169.296203
1559.151841,-1033.699363,-95.712904,-8997.012976
1559.154403,-1071.984525,2871.387120,-8614.161360
1559.156964,-1818.545176,-937.986459,-8939.585234
1559.159525,-2182.254211,2086.541307,-8882.157491
1559.162086,-555.134843,1071.984525,-9245.866526
1559.164647,-1703.689691,1646.261949,-8882.157491
1559.167208,-918.843878,1014.556782,-8920.442653
1559.169770,-1301.695494,-669.990328,-8997.012976
1559.172331,-689.132909,-76.570323,-9054.440718
1559.174892,-19.142581,-708.275490,-9226.723946
1559.177453,-842.273555,1473.978722,-8997.012976
1559.180014,-1205.982590,1627.119368,-8843.872330
1559.182575,-2239.681954,1282.552914,-8824.729749
1559.185136,-1627.119368,-2105.683888,-8977.870395
1559.187698,-1186.840010,-2124.826469,-9265.009107
1559.190259,861.416136,3196.810994,-8997.012976
1559.192820,153.140646,-2545.963246,-9073.583299
1559.195383,-133.998066,1799.402595,-8863.014910
1559.197946,727.418070,-2335.394858,-9322.436850
1559.200509,-669.990328,-1703.689691,-9226.723946
1559.203072,-363.709035,-995.414202,-9016.155557
1559.205635,-765.703232,191.425808,-8882.157491
1559.208198,-1531.406464,421.136778,-9092.725880
1559.210761,95.712904,-1186.840010,-9188.438784
1559.213324,-210.568389,708.275490,-8977.870395
1559.215887,0.000000,-957.129040,-9226.723946
1559.218450,-76.570323,-363.709035,-9035.298138
1559.221013,-401.994197,-1761.117434,-9092.725880
1559.223576,-478.564520,-440.279358,-9188.438784
1559.226139,-267.996131,-1569.691626,-9035.298138
1559.228702,-689.132909,-574.277424,-9284.151688
1559.231265,-440.279358,-1569.691626,-9322.436850
1559.233828,-1684.547110,2469.392923,-9054.440718
1559.236391,650.847747,-3062.812928,-9073.583299
1559.238954,-995.414202,153.140646,-8709.874264
1559.241517,-669.990328,1722.832272,-9188.438784
1559.244080,344.566454,-1493.121302,-8958.727814
1559.246643,-19.142581,1512.263883,-8767.302006
1559.249206,306.281293,-2565.105827,-9379.864592
1559.251769,306.281293,1186.840010,-8843.872330
1559.254332,1110.269686,-2392.822600,-9265.009107
1559.256895,-1205.982590,784.845813,-8920.442653
1559.259458,-287.138712,-248.853550,-9073.583299
1559.262021,-1569.691626,-555.134843,-9016.155557
1559.264584,-1205.982590,-708.275490,-9284.151688
1559.267147,-153.140646,-1186.840010,-9131.011042
1559.269710,229.710970,-133.998066,-9092.725880
1559.272273,746.560651,-57.427742,-9150.153622
1559.274836,-478.564520,535.992262,-9016.155557
1559.277399,401.994197,-1014.556782,-9092.725880
1559.279962,-325.423874,-153.140646,-9092.725880
1559.282525,-1607.976787,2124.826469,-8958.727814
1559.285088,-2775.674216,153.140646,-8882.157491
1559.287651,-2335.394858,401.994197,-9073.583299
1559.290214,-1091.127106,-555.134843,-9245.866526
1559.292777,-555.134843,1627.119368,-9111.868461
1559.295340,-478.564520,976.271621,-8882.157491
1559.297905,-650.847747,842.273555,-8997.012976
1559.300470,-555.134843,-803.988394,-9035.298138
1559.303035,-727.418070,-401.994197,-9035.298138
1559.305599,-1569.691626,325.423874,-9073.583299
1559.308164,-1818.545176,2526.820666,-8901.300072
1559.310729,-1761.117434,1493.121302,-8977.870395
1559.313294,-1473.978722,650.847747,-9150.153622
1559.315858,-976.271621,-1244.267752,-8977.870395
1559.318423,-1110.269686,-401.994197,-9073.583299
1559.320988,-669.990328,-344.566454,-9016.155557
1559.323552,-823.130974,3273.381317,-8958.727814
1559.326117,-803.988394,325.423874,-9092.725880
1559.328682,-1416.550979,-1320.838075,-8977.870395
1559.331247,-1052.841944,-880.558717,-9111.868461
1559.333811,-382.851616,2220.539373,-9188.438784
1559.336376,-1359.123237,631.705166,-9035.298138
1559.338941,-1818.545176,689.132909,-8901.300072
1559.341505,-2067.398726,-1014.556782,-9111.868461
1559.344070,-2067.398726,1071.984525,-9073.583299
1559.346635,-1435.693560,1339.980656,-9188.438784
1559.349200,-1320.838075,1320.838075,-8939.585234
1559.351764,-363.709035,-76.570323,-8997.012976
1559.354329,-784.845813,-382.851616,-8977.870395
1559.356894,-689.132909,784.845813,-9016.155557
1559.359458,-708.275490,995.414202,-9092.725880
1559.362023,-1225.125171,2335.394858,-9016.155557
1559.364588,-1627.119368,727.418070,-8843.872330
1559.367153,-2335.394858,-1550.549045,-8939.585234
1559.369717,-1473.978722,-1320.838075,-9188.438784
1559.372282,133.998066,2220.539373,-8958.727814
1559.374847,1282.552914,555.134843,-8939.585234
1559.377411,1588.834206,-516.849682,-8939.585234
1559.379976,191.425808,-401.994197,-9341.579430
1559.382541,-421.136778,-2124.826469,-9111.868461
1559.385106,-1225.125171,-1129.412267,-8939.585234
1559.387670,-363.709035,19.142581,-9054.440718
1559.390235,-1359.123237,478.564520,-9035.298138
1559.392800,-76.570323,-899.701298,-9131.011042
1559.395364,-478.564520,-899.701298,-9131.011042
1559.397929,19.142581,-535.992262,-9169.296203
1559.400495,421.136778,-1071.984525,-9150.153622
1559.403062,-497.707101,-803.988394,-9016.155557
1559.405628,-267.996131,-1033.699363,-9016.155557
1559.408195,-899.701298,-248.853550,-9035.298138
1559.410761,76.570323,-535.992262,-9207.581365
1559.413327,57.427742,-2048.256146,-9303.294269
1559.415894,-1091.127106,-229.710970,-8939.585234
1559.418460,-708.275490,-2603.390989,-9131.011042
1559.421026,-1646.261949,-229.710970,-8997.012976
1559.423593,287.138712,133.998066,-9035.298138
1559.426159,-133.998066,-1550.549045,-9207.581365
1559.428725,918.843878,-210.568389,-9092.725880
1559.431292,267.996131,-1856.830338,-9169.296203
1559.433858,-210.568389,861.416136,-8977.870395
1559.436424,-229.710970,-842.273555,-9073.583299
1559.438991,-937.986459,172.283227,-8920.442653
1559.441557,-669.990328,-1837.687757,-9226.723946
1559.444124,-1014.556782,-727.418070,-9111.868461
1559.446690,-287.138712,-650.847747,-9188.438784
1559.449256,-382.851616,-401.994197,-9073.583299
1559.451823,-95.712904,1052.841944,-9092.725880
1559.454389,133.998066,-2029.113565,-9265.009107
1559.456955,267.996131,-363.709035,-9169.296203
1559.459522,-727.418070,-19.142581,-8977.870395
1559.462088,-1244.267752,2775.674216,-8690.731683
1559.464654,-1933.400661,-708.275490,-8977.870395
1559.467221,-2488.535504,382.851616,-9054.440718
1559.469787,-1378.265818,-555.134843,-9513.862658
1559.472353,-574.277424,1703.689691,-9035.298138
1559.474920,-516.849682,1301.695494,-8748.159426
1559.477486,-325.423874,229.710970,-9016.155557
1559.480053,-803.988394,-1148.554848,-9054.440718
1559.482619,-650.847747,-306.281293,-9073.583299
1559.485185,-1665.404530,1512.263883,-8901.300072
1559.487752,-1875.972918,1875.972918,-8939.585234
1559.490318,-2009.970984,842.273555,-8901.300072
1559.492884,-1282.552914,-57.427742,-9207.581365
1559.495451,-689.132909,-421.136778,-9111.868461
1559.498017,-612.562586,899.701298,-8939.585234
1559.500583,535.992262,-784.845813,-9016.155557
1559.503151,-2009.970984,1091.127106,-8958.727814
1559.505718,-957.129040,3311.666478,-8958.727814
1559.508285,-38.285162,-2660.818731,-9111.868461
1559.510853,-650.847747,-1263.410333,-9265.009107
1559.513420,-459.421939,2048.256146,-8977.870395
1559.515987,-2029.113565,899.701298,-8805.587168
1559.518555,-2565.105827,2679.961312,-8805.587168
1559.521122,-1722.832272,-382.851616,-9226.723946
1559.523689,-1435.693560,1244.267752,-8863.014910
1559.526257,-861.416136,-478.564520,-9073.583299
1559.528824,-1416.550979,1167.697429,-9054.440718
1559.531391,-76.570323,382.851616,-9035.298138
1559.533959,-287.138712,38.285162,-9035.298138
1559.536526,-1263.410333,2239.681954,-8997.012976
1559.539093,-1282.552914,344.566454,-9016.155557
1559.541661,-1703.689691,306.281293,-8977.870395
1559.544228,-1473.978722,-2258.824534,-9131.011042
1559.546795,-1665.404530,2794.816797,-8920.442653
1559.549363,-842.273555,-1282.552914,-9131.011042
1559.551930,401.994197,555.134843,-9092.725880
1559.554497,1588.834206,-2450.250342,-9399.007173
1559.557065,918.843878,172.283227,-9073.583299
1559.559632,-593.420005,-1320.838075,-8901.300072
1559.562199,-1148.554848,287.138712,-8843.872330
1559.564767,-1320.838075,-287.138712,-9092.725880
1559.567334,-650.847747,-880.558717,-9341.579430
1559.569901,-191.425808,-612.562586,-9169.296203
1559.572469,19.142581,267.996131,-9073.583299
1559.575036,248.853550,-727.418070,-9035.298138
1559.577603,-229.710970,-1033.699363,-9016.155557
1559.580171,-210.568389,-555.134843,-9016.155557
1559.582738,-382.851616,-976.271621,-9111.868461
1559.585305,-842.273555,-631.705166,-8958.727814
1559.587873,-1952.543242,1454.836141,-9111.868461
1559.590440,229.710970,-248.853550,-9131.011042
1559.593007,-306.281293,631.705166,-8997.012976
1559.595575,650.847747,-1110.269686,-8882.157491
1559.598142,-1167.697429,-689.132909,-9226.723946
1559.600709,57.427742,-440.279358,-9226.723946
1559.603277,95.712904,-1033.699363,-9265.009107
1559.605845,574.277424,-727.418070,-9226.723946
1559.608413,133.998066,-2105.683888,-9111.868461
1559.610982,-899.701298,861.416136,-9073.583299
1559.613550,-689.132909,-689.132909,-9188.438784
1559.616118,-593.420005,-803.988394,-9054.440718
1559.618687,-535.992262,-937.986459,-9150.153622
1559.621255,-344.566454,-19.142581,-9226.723946
1559.623824,325.423874,-459.421939,-9054.440718
1559.626392,-650.847747,-440.279358,-8977.870395
1559.628960,631.705166,-937.986459,-9188.438784
1559.631529,401.994197,-1014.556782,-9111.868461
1559.634097,-2086.541307,3062.812928,-9092.725880
1559.636665,-2813.959378,-19.142581,-8843.872330
1559.639234,-1014.556782,1033.699363,-8882.157491
1559.641802,-1531.406464,-746.560651,-9245.866526
1559.644370,-1741.974853,1205.982590,-9226.723946
1559.646939,-918.843878,976.271621,-8997.012976
1559.649507,-842.273555,1110.269686,-8977.870395
1559.652075,-306.281293,-689.132909,-9150.153622
1559.654644,-248.853550,-1359.123237,-9016.155557
1559.657212,-1397.408398,689.132909,-8901.300072
1559.659780,-1703.689691,2201.396792,-9016.155557
1559.662349,-1837.687757,2029.113565,-8786.444587
1559.664917,-1914.258080,267.996131,-9150.153622
1559.667486,-1435.693560,-689.132909,-9322.436850
1559.670054,382.851616,-555.134843,-8958.727814
1559.672622,-1186.840010,-784.845813,-8977.870395
1559.675191,-1416.550979,4115.654872,-9035.298138
1559.677759,-2029.113565,-3235.096155,-9092.725880
1559.680327,-995.414202,5551.348432,-8958.727814
1559.682896,248.853550,-2450.250342,-9533.005238
1559.685464,-1741.974853,-957.129040,-8767.302006
1559.688033,-708.275490,2890.529701,-8652.446522
1559.690603,-2239.681954,459.421939,-9035.298138
1559.693172,-2297.109696,2201.396792,-8882.157491
1559.695741,-1282.552914,-1263.410333,-9303.294269
1559.698311,-1186.840010,1225.125171,-9016.155557
1559.700880,19.142581,-784.845813,-9303.294269
1559.703449,-899.701298,1512.263883,-8920.442653
1559.706018,-746.560651,1129.412267,-8901.300072
1559.708588,-1416.550979,1531.406464,-8882.157491
1559.711157,-1780.260014,248.853550,-9016.155557
1559.713726,-1186.840010,-1799.402595,-9150.153622
1559.716296,-1263.410333,516.849682,-9188.438784
1559.718865,-650.847747,1071.984525,-8863.014910
1559.721434,19.142581,76.570323,-8939.585234
1559.724004,650.847747,-2603.390989,-9245.866526
1559.726573,1205.982590,287.138712,-9475.577496
1559.729142,-153.140646,-2813.959378,-9188.438784
1559.731711,-1550.549045,-95.712904,-8748.159426
1559.734281,-899.701298,248.853550,-8958.727814
1559.736850,-1110.269686,-57.427742,-9054.440718
1559.739419,-210.568389,-1033.699363,-9207.581365
1559.741989,-114.855485,-459.421939,-9226.723946
1559.744558,172.283227,401.994197,-9035.298138
1559.747127,631.705166,-612.562586,-9054.440718
1559.749697,-555.134843,-1129.412267,-9169.296203
1559.752266,57.427742,-1052.841944,-8997.012976
1559.754835,-1091.127106,-650.847747,-9188.438784
1559.757404,421.136778,1799.402595,-9092.725880
1559.759974,-421.136778,-3694.518094,-9092.725880
1559.762543,-1435.693560,4192.225195,-8729.016845
1559.765112,593.420005,-248.853550,-9322.436850
1559.767682,-957.129040,-2277.967115,-8786.444587
1559.770251,823.130974,1799.402595,-9131.011042
1559.772820,133.998066,-1473.978722,-9111.868461
1559.775390,727.418070,1818.545176,-8863.014910
1559.777959,306.281293,-2526.820666,-9092.725880
1559.780528,-287.138712,1454.836141,-8690.731683
1559.783098,229.710970,-2392.822600,-9303.294269
1559.785667,-1148.554848,823.130974,-9073.583299
1559.788236,-191.425808,-1359.123237,-9207.581365
1559.790789,-267.996131,-229.710970,-9111.868461
1559.793342,-363.709035,344.566454,-9131.011042
1559.795895,-363.709035,-1512.263883,-9188.438784
1559.798448,191.425808,-497.707101,-9131.011042
1559.801000,229.710970,-880.558717,-9016.155557
1559.803553,-1339.980656,2775.674216,-8652.446522
1559.806106,-1339.980656,-765.703232,-8939.585234
1559.808659,-2297.109696,382.851616,-8977.870395
1559.811212,-2086.541307,-440.279358,-9494.720077
1559.813765,-880.558717,2086.541307,-8997.012976
1559.816318,-976.271621,1263.410333,-8843.872330
1559.818871,-803.988394,861.416136,-8997.012976
1559.821423,-535.992262,-937.986459,-9169.296203
1559.823976,-172.283227,-95.712904,-9016.155557
1559.826529,-1607.976787,612.562586,-8920.442653
1559.829082,-1665.404530,3005.385186,-8882.157491
1559.831635,-1914.258080,689.132909,-8882.157491
1559.834188,-2182.254211,784.845813,-8997.012976
1559.836741,-1110.269686,-1512.263883,-9571.290400
1559.839294,-401.994197,1339.980656,-9016.155557
1559.841846,-957.129040,4843.072942,-9092.725880
1559.844399,-976.271621,-5340.780043,-8748.159426
1559.846952,-1531.406464,7082.754896,-8824.729749
1559.849505,-325.423874,-3598.805190,-9571.290400
1559.852058,-1397.408398,3062.812928,-9016.155557
1559.854611,-497.707101,-287.138712,-8958.727814
1559.857164,-3656.232933,3311.666478,-8441.878133
1559.859716,-1761.117434,2316.252277,-9111.868461
1559.862269,-1512.263883,-1818.545176,-9418.149754
1559.864822,-727.418070,1741.974853,-8863.014910
1559.867375,248.853550,-2048.256146,-9265.009107
1559.869928,-1397.408398,2756.531635,-8882.157491
1559.872481,133.998066,650.847747,-8901.300072
1559.875034,-2239.681954,2354.537438,-8729.016845
1559.877587,-1339.980656,-995.414202,-9054.440718
1559.880139,-957.129040,-2660.818731,-9226.723946
1559.882692,-1378.265818,3828.516160,-9226.723946
1559.885245,-1205.982590,-2813.959378,-9265.009107
1559.887798,172.283227,2450.250342,-8729.016845
1559.890351,1741.974853,-3254.238736,-9131.011042
1559.892907,593.420005,1320.838075,-9341.579430
1559.895462,516.849682,-2526.820666,-9226.723946
1559.898018,-1225.125171,784.845813,-8633.303941
1559.900573,-1665.404530,-459.421939,-9073.583299
1559.903129,-535.992262,-650.847747,-9245.866526
1559.905685,-382.851616,-899.701298,-9207.581365
1559.908240,248.853550,-344.566454,-9226.723946
1559.910796,153.140646,248.853550,-9054.440718
1559.913352,746.560651,-287.138712,-8977.870395
1559.915907,-842.273555,-172.283227,-9111.868461
1559.918463,-727.418070,-1320.838075,-9150.153622
1559.921018,0.000000,1378.265818,-9035.298138
1559.923574,-133.998066,-2756.531635,-9035.298138
1559.926130,-1014.556782,4498.506488,-8901.300072
1559.928685,574.277424,-5742.774240,-9341.579430
1559.931241,-1263.410333,1416.550979,-8786.444587
1559.933797,631.705166,-3043.670347,-9437.292334
1559.936352,-210.568389,-689.132909,-9150.153622
1559.938908,1071.984525,803.988394,-9035.298138
1559.941463,114.855485,-2316.252277,-9226.723946
1559.944019,-382.851616,1416.550979,-8709.874264
1559.946575,-765.703232,-3196.810994,-9245.866526
1559.949130,-497.707101,1359.123237,-8920.442653
1559.951686,57.427742,-1780.260014,-9188.438784
1559.954242,-784.845813,957.129040,-9092.725880
1559.956797,-344.566454,-363.709035,-9150.153622
1559.959353,0.000000,-1282.552914,-9207.581365
1559.961909,421.136778,-1167.697429,-9188.438784
1559.964464,-382.851616,784.845813,-8977.870395
1559.967020,-1320.838075,2871.387120,-8537.591037
1559.969575,-1110.269686,-497.707101,-8767.302006
1559.972131,-2584.248408,344.566454,-9035.298138
1559.974687,-1722.832272,669.990328,-9437.292334
1559.977242,-899.701298,918.843878,-8958.727814
1559.979798,-976.271621,2067.398726,-8729.016845
1559.982354,-325.423874,-153.140646,-9111.868461
1559.984909,-803.988394,-823.130974,-9111.868461
1559.987465,-57.427742,-133.998066,-9092.725880
1559.990020,-1799.402595,1091.127106,-8958.727814
1559.992576,-1397.408398,2469.392923,-8824.729749
1559.995134,-1952.543242,1033.699363,-8901.300072
1559.997693,-2239.681954,421.136778,-8958.727814
1560.000251,516.849682,995.414202,-9073.583299
1560.002809,1339.980656,-708.275490,-9035.298138
1560.005367,-1761.117434,2086.541307,-8748.159426
1560.007925,-746.560651,-57.427742,-9111.868461
1560.010484,-1033.699363,-746.560651,-8767.302006
1560.013042,-1416.550979,1837.687757,-9322.436850
1560.015600,-1588.834206,-1014.556782,-9226.723946
1560.018158,-2833.101958,2009.970984,-8690.731683
1560.020717,-1167.697429,631.705166,-9303.294269
1560.023275,-2124.826469,1320.838075,-9111.868461
1560.025833,-363.709035,-574.277424,-9131.011042
1560.028391,-861.416136,-191.425808,-9188.438784
1560.030949,-229.710970,842.273555,-9207.581365
1560.033508,-631.705166,1052.841944,-8958.727814
1560.036066,-2411.965181,1990.828403,-8786.444587
1560.038624,-1722.832272,-1110.269686,-9016.155557
1560.041182,-1703.689691,-1052.841944,-9016.155557
1560.043741,-765.703232,1799.402595,-9341.579430
1560.046299,-1282.552914,-1473.978722,-9341.579430
1560.048857,689.132909,1703.689691,-8786.444587
1560.051415,1186.840010,-1895.115499,-9111.868461
1560.053973,784.845813,1071.984525,-9111.868461
1560.056532,516.849682,-2143.969050,-9111.868461
1560.059090,-1703.689691,497.707101,-8843.872330
1560.061648,-842.273555,-784.845813,-9092.725880
1560.064206,-995.414202,38.285162,-9073.583299
1560.066765,153.140646,-1359.123237,-9188.438784
1560.069323,38.285162,19.142581,-9169.296203
1560.071881,746.560651,-497.707101,-9054.440718
1560.074439,459.421939,-1627.119368,-9150.153622
1560.076997,-899.701298,325.423874,-9054.440718
1560.079556,-76.570323,-3235.096155,-9169.296203
1560.082114,-2201.396792,-325.423874,-9111.868461
1560.084672,-382.851616,0.000000,-9245.866526
1560.087230,-459.421939,1895.115499,-8901.300072
1560.089788,689.132909,-976.271621,-8939.585234
1560.092347,363.709035,-1397.408398,-9016.155557
1560.094905,229.710970,287.138712,-9226.723946
1560.097448,593.420005,-1205.982590,-9399.007173
1560.099992,-191.425808,229.710970,-9092.725880
1560.102535,421.136778,-1722.832272,-9035.298138
1560.105079,-995.414202,-516.849682,-8920.442653
1560.107622,-306.281293,-995.414202,-9111.868461
1560.110165,-727.418070,-153.140646,-9150.153622
1560.112709,-344.566454,-267.996131,-9111.868461
1560.115252,-325.423874,287.138712,-9169.296203
1560.117796,-248.853550,-1186.840010,-9207.581365
1560.120339,593.420005,-1416.550979,-9284.151688
1560.122883,76.570323,153.140646,-9035.298138
1560.125426,-1167.697429,2565.105827,-8709.874264
1560.127969,-2163.111630,-727.418070,-8882.157491
1560.130513,-2660.818731,172.283227,-8901.300072
1560.133056,-1780.260014,-57.427742,-9284.151688
1560.135600,-1110.269686,1684.547110,-9054.440718
1560.138143,-842.273555,1741.974853,-8882.157491
1560.140686,-765.703232,325.423874,-9073.583299
1560.143230,-478.564520,-421.136778,-9150.153622
1560.145773,95.712904,-478.564520,-9131.011042
1560.148317,-1493.121302,765.703232,-8939.585234
1560.150860,-1550.549045,2220.539373,-8920.442653
1560.153404,-2354.537438,76.570323,-8977.870395
1560.155947,-2335.394858,229.710970,-9131.011042
1560.158490,-267.996131,-2392.822600,-9360.722011
1560.161034,-1378.265818,1301.695494,-9131.011042
1560.163577,-191.425808,1473.978722,-9073.583299
1560.166121,-1091.127106,-1244.267752,-8901.300072
1560.168664,-1627.119368,421.136778,-9054.440718
1560.171207,-1033.699363,-306.281293,-9226.723946
1560.173751,-2641.676150,1071.984525,-8748.159426
1560.176294,-1473.978722,727.418070,-9092.725880
1560.178838,-2086.541307,612.562586,-8997.012976
1560.181381,-746.560651,995.414202,-9073.583299
1560.183925,-1148.554848,-1205.982590,-9111.868461
1560.186468,-344.566454,1148.554848,-9035.298138
1560.189011,-153.140646,1397.408398,-9169.296203
1560.191555,-1416.550979,1569.691626,-8843.872330
1560.194098,-1473.978722,133.998066,-8805.587168
1560.196642,-2488.535504,-765.703232,-8997.012976
1560.199189,-1167.697429,-440.279358,-9150.153622
1560.201737,-440.279358,1588.834206,-9035.298138
1560.204285,842.273555,-1129.412267,-9207.581365
1560.206832,1512.263883,-2201.396792,-9054.440718
1560.209380,421.136778,248.853550,-9169.296203
1560.211927,76.570323,-1952.543242,-9188.438784
1560.214475,-1378.265818,-133.998066,-8882.157491
1560.217023,-669.990328,-593.420005,-9188.438784
1560.219570,-1014.556782,-95.712904,-9035.298138
1560.222118,-95.712904,-861.416136,-9092.725880
1560.224665,-363.709035,-1148.554848,-9169.296203
1560.227213,-114.855485,-669.990328,-9226.723946
1560.229761,478.564520,-172.283227,-9284.151688
1560.232308,95.712904,-535.992262,-8920.442653
1560.234856,-153.140646,650.847747,-8977.870395
1560.237404,-478.564520,-2756.531635,-9092.725880
1560.239951,-1071.984525,325.423874,-9054.440718
1560.242499,306.281293,-1244.267752,-9245.866526
1560.245046,-459.421939,-2373.680019,-9131.011042
1560.247594,-306.281293,-631.705166,-8997.012976
1560.250142,38.285162,-3005.385186,-9494.720077
1560.252689,306.281293,1014.556782,-9265.009107
1560.255237,1473.978722,-1761.117434,-9399.007173
1560.257784,-440.279358,0.000000,-8939.585234
1560.260332,-133.998066,-2067.398726,-9054.440718
1560.262880,-1550.549045,-612.562586,-8997.012976
1560.265427,-708.275490,421.136778,-9111.868461
1560.267975,-191.425808,-95.712904,-9188.438784
1560.270523,-593.420005,574.277424,-9016.155557
1560.273070,593.420005,-2220.539373,-9169.296203
1560.275618,401.994197,-287.138712,-9169.296203
1560.278165,-287.138712,842.273555,-9054.440718
1560.280713,-1454.836141,1971.685822,-8633.303941
1560.283261,-1684.547110,784.845813,-8843.872330
1560.285808,-2373.680019,-803.988394,-9131.011042
1560.288356,-2029.113565,1033.699363,-9131.011042
1560.290904,-880.558717,689.132909,-8958.727814
1560.293451,-842.273555,2488.535504,-8882.157491
1560.295999,-229.710970,-401.994197,-9188.438784
1560.298546,-727.418070,-823.130974,-9016.155557
1560.301098,-344.566454,210.568389,-9092.725880
1560.303649,-1339.980656,1301.695494,-8958.727814
1560.306201,-1780.260014,1818.545176,-8767.302006
1560.308753,-2488.535504,363.709035,-9035.298138
1560.311304,-1646.261949,229.710970,-9169.296203
1560.313856,-401.994197,-823.130974,-9322.436850
1560.316407,-267.996131,306.281293,-9111.868461
1560.318959,-1244.267752,2143.969050,-8767.302006
1560.321510,-708.275490,1454.836141,-8939.585234
1560.324062,-1684.547110,2086.541307,-8997.012976
1560.326613,-1607.976787,516.849682,-9035.298138
1560.329165,-2067.398726,995.414202,-8729.016845
1560.331716,-1588.834206,555.134843,-9016.155557
1560.334268,-1416.550979,689.132909,-9150.153622
1560.336819,-497.707101,689.132909,-9092.725880
1560.339371,-746.560651,76.570323,-8939.585234
1560.341922,-861.416136,2584.248408,-8977.870395
1560.344474,-918.843878,172.283227,-9054.440718
1560.347025,-1856.830338,1435.693560,-8767.302006
1560.349577,-1550.549045,-2124.826469,-9016.155557
1560.352128,-1818.545176,2431.107762,-9054.440718
1560.354680,-689.132909,-1397.408398,-9016.155557
1560.357231,937.986459,401.994197,-9092.725880
1560.359783,1359.123237,-1933.400661,-9303.294269
1560.362334,842.273555,248.853550,-9169.296203
1560.364886,-19.142581,-1378.265818,-8863.014910
1560.367437,-1244.267752,191.425808,-8786.444587
1560.369989,-995.414202,-1148.554848,-9226.723946
1560.372540,-784.845813,-401.994197,-9188.438784
1560.375092,-248.853550,-1301.695494,-9169.296203
1560.377643,-287.138712,-267.996131,-9092.725880
1560.380195,382.851616,133.998066,-9111.868461
1560.382746,401.994197,-899.701298,-9207.581365
1560.385298,76.570323,478.564520,-8863.014910
1560.387849,-574.277424,-2163.111630,-9111.868461
1560.390401,-2660.818731,-937.986459,-9035.298138
1560.392952,191.425808,2775.674216,-9245.866526
1560.395504,708.275490,-3311.666478,-9169.296203
1560.398055,-1186.840010,1014.556782,-8843.872330
1560.400607,1186.840010,-1818.545176,-9054.440718
1560.403161,-459.421939,267.996131,-9188.438784
1560.405716,1550.549045,363.709035,-9207.581365
1560.408270,153.140646,-1703.689691,-9111.868461
1560.410825,325.423874,-459.421939,-8882.157491
1560.413379,-1263.410333,-1684.547110,-9188.438784
1560.415934,-650.847747,765.703232,-8977.870395
1560.418488,-267.996131,-1033.699363,-9169.296203
1560.421043,-1282.552914,1052.841944,-9150.153622
1560.423597,650.847747,-1837.687757,-9284.151688
1560.426152,421.136778,-746.560651,-9092.725880
1560.428707,172.283227,765.703232,-9131.011042
1560.431261,-823.130974,1952.543242,-8633.303941
1560.433816,-1339.980656,133.998066,-8709.874264
1560.436370,-2392.822600,191.425808,-8977.870395
1560.438925,-2450.250342,803.988394,-9322.436850
1560.441479,-1416.550979,861.416136,-8958.727814
1560.444034,-995.414202,2239.681954,-8843.872330
1560.446588,-363.709035,248.853550,-9111.868461
1560.449143,-440.279358,-363.709035,-9035.298138
1560.451697,-133.998066,-382.851616,-9035.298138
1560.454252,-1167.697429,842.273555,-9054.440718
1560.456806,-1741.974853,2373.680019,-8614.161360
1560.459361,-2009.970984,880.558717,-8939.585234
1560.461915,-2718.246474,-708.275490,-9054.440718
1560.464470,344.566454,2373.680019,-9169.296203
1560.467024,497.707101,650.847747,-9016.155557
1560.469579,-765.703232,631.705166,-8958.727814
1560.472134,-1607.976787,823.130974,-8863.014910
1560.474688,-1741.974853,784.845813,-9073.583299
1560.477243,-2297.109696,267.996131,-9035.298138
1560.479797,-2220.539373,918.843878,-8805.587168
1560.482352,-1110.269686,631.705166,-8997.012976
1560.484906,-1148.554848,1071.984525,-9016.155557
1560.487461,-76.570323,153.140646,-9150.153622
1560.490015,-746.560651,784.845813,-8920.442653
1560.492570,-765.703232,689.132909,-9035.298138
1560.495124,-1282.552914,1186.840010,-8997.012976
1560.497679,-1914.258080,-133.998066,-8920.442653
1560.500233,-1741.974853,-1263.410333,-9035.298138
1560.502788,-976.271621,2967.100024,-8901.300072
1560.505345,-880.558717,-2890.529701,-9245.866526
1560.507902,382.851616,880.558717,-9188.438784
1560.510460,1741.974853,-2813.959378,-9379.864592
1560.513017,440.279358,-133.998066,-9111.868461
1560.515574,-421.136778,-650.847747,-8786.444587
1560.518131,-612.562586,76.570323,-8920.442653
1560.520689,-1454.836141,-918.843878,-9207.581365
1560.523246,-803.988394,-1167.697429,-9284.151688
1560.525803,-478.564520,-478.564520,-9073.583299
1560.528360,746.560651,-574.277424,-9226.723946
1560.530918,153.140646,-535.992262,-9284.151688
1560.533475,765.703232,-937.986459,-9016.155557
1560.536032,-1282.552914,516.849682,-8786.444587
1560.538589,19.142581,-344.566454,-8843.872330
1560.541147,57.427742,-38.285162,-8863.014910
1560.543704,-459.421939,2067.398726,-9111.868461
1560.546261,19.142581,-2335.394858,-9169.296203
1560.548818,-497.707101,555.134843,-8671.589102
1560.551376,708.275490,-2392.822600,-9360.722011
1560.553933,210.568389,-842.273555,-9207.581365
1560.556490,1033.699363,-344.566454,-9073.583299
1560.559047,-248.853550,-1607.976787,-9016.155557
1560.561604,-401.994197,478.564520,-8958.727814
1560.564162,-995.414202,-1091.127106,-9054.440718
1560.566719,-95.712904,478.564520,-9035.298138
1560.569276,-708.275490,-631.705166,-9188.438784
1560.571833,-38.285162,-306.281293,-9150.153622
1560.574391,1282.552914,-1282.552914,-9226.723946
1560.576948,-1148.554848,1990.828403,-8977.870395
1560.579505,-1148.554848,1454.836141,-8843.872330
1560.582062,-1473.978722,57.427742,-8729.016845
1560.584620,-2163.111630,172.283227,-9073.583299
1560.587177,-2086.541307,0.000000,-9341.579430
1560.589734,-1550.549045,1952.543242,-9035.298138
1560.592291,-957.129040,1244.267752,-8958.727814
1560.594849,-535.992262,459.421939,-9016.155557
1560.597406,-191.425808,-803.988394,-9150.153622
1560.599963,-421.136778,-267.996131,-9150.153622
1560.602520,-1320.838075,1550.549045,-8920.442653
1560.605078,-1703.689691,2450.250342,-8690.731683
1560.607637,-2737.389054,401.994197,-8863.014910
1560.610197,-1703.689691,1837.687757,-8958.727814
1560.612757,746.560651,-535.992262,-9360.722011
1560.615317,-382.851616,229.710970,-9016.155557
1560.617876,-1205.982590,1148.554848,-8805.587168
1560.620436,-2029.113565,2105.683888,-8901.300072
1560.622996,-1933.400661,95.712904,-8939.585234
1560.625556,-2258.824534,1225.125171,-8997.012976
1560.628115,-1588.834206,-191.425808,-8901.300072
1560.630675,-1301.695494,535.992262,-9016.155557
1560.633235,-440.279358,1129.412267,-9150.153622
1560.635795,-689.132909,57.427742,-9016.155557
1560.638354,-727.418070,1646.261949,-8920.442653
1560.640914,-1225.125171,-153.140646,-9111.868461
1560.643474,-1512.263883,1205.982590,-8977.870395
1560.646034,-1493.121302,-1856.830338,-9016.155557
1560.648593,-1837.687757,2775.674216,-8901.300072
1560.651153,-1378.265818,-2737.389054,-9188.438784
1560.653713,861.416136,1282.552914,-9016.155557
1560.656273,1550.549045,-3388.236802,-9399.007173
1560.658832,1091.127106,210.568389,-9284.151688
1560.661392,689.132909,-1205.982590,-9035.298138
1560.663952,-1129.412267,1033.699363,-8671.589102
1560.666512,-1339.980656,-1282.552914,-9265.009107
1560.669071,-899.701298,-1588.834206,-9322.436850
1560.671631,-210.568389,-918.843878,-9111.868461
1560.674191,57.427742,-803.988394,-9092.725880
1560.676751,191.425808,344.566454,-9150.153622
1560.679310,746.560651,-976.271621,-9131.011042
1560.681870,-248.853550,-1512.263883,-9169.296203
1560.684430,-1741.974853,-2143.969050,-9016.155557
1560.686990,-1110.269686,-1186.840010,-9303.294269
1560.689549,-153.140646,-2411.965181,-9322.436850
1560.692109,-957.129040,210.568389,-9054.440718
1560.694669,363.709035,-1971.685822,-9092.725880
1560.697229,153.140646,-995.414202,-9169.296203
1560.699788,823.130974,-1186.840010,-9590.432981
1560.702348,-153.140646,-1167.697429,-9092.725880
1560.704908,344.566454,-267.996131,-8920.442653
1560.707468,-861.416136,-1129.412267,-9016.155557
1560.710030,-803.988394,-19.142581,-8977.870395
1560.712592,-401.994197,-172.283227,-9226.723946
1560.715154,-1033.699363,-440.279358,-9188.438784
1560.717716,823.130974,-1282.552914,-9226.723946
1560.720278,478.564520,-535.992262,-9150.153622
1560.722840,-957.129040,2431.107762,-8977.870395
1560.725402,-2220.539373,459.421939,-8709.874264
1560.727963,-2431.107762,1359.123237,-8824.729749
1560.730525,-1818.545176,-1244.267752,-9379.864592
1560.733087,-1665.404530,1971.685822,-9073.583299
1560.735649,-1071.984525,880.558717,-8939.585234
1560.738211,-1282.552914,1933.400661,-8958.727814
1560.740773,19.142581,-478.564520,-9188.438784
1560.743335,-784.845813,-401.994197,-9035.298138
1560.745897,-765.703232,-344.566454,-9303.294269
1560.748459,-1473.978722,842.273555,-8901.300072
1560.751021,-2086.541307,2277.967115,-8843.872330
1560.753583,-1875.972918,-1301.695494,-9035.298138
1560.756145,-1952.543242,899.701298,-9226.723946
1560.758707,516.849682,-612.562586,-9437.292334
1560.761269,-1914.258080,-1703.689691,-8958.727814
1560.763831,-1052.841944,3330.809059,-8824.729749
1560.766393,-2431.107762,-708.275490,-8939.585234
1560.768955,-3043.670347,1799.402595,-8843.872330
1560.771517,-1684.547110,-516.849682,-9207.581365
1560.774079,-1914.258080,727.418070,-8786.444587
1560.776641,-210.568389,1033.699363,-9131.011042
1560.779203,-1263.410333,-363.709035,-9131.011042
1560.781765,-248.853550,2565.105827,-8920.442653
1560.784327,-1167.697429,-937.986459,-9073.583299
1560.786889,-1990.828403,823.130974,-8939.585234
1560.789451,-1186.840010,-1665.404530,-9111.868461
1560.792015,-2124.826469,3579.662610,-8863.014910
1560.794578,-1148.554848,-2086.541307,-9035.298138
1560.797142,784.845813,1205.982590,-8920.442653
1560.799705,1186.840010,-2890.529701,-9418.149754
1560.802269,1531.406464,210.568389,-9379.864592
1560.804833,325.423874,-1033.699363,-8997.012976
1560.807396,-1129.412267,516.849682,-8863.014910
1560.809960,-1225.125171,-1014.556782,-9207.581365
1560.812523,-918.843878,-1378.265818,-9188.438784
1560.815087,-363.709035,-861.416136,-9265.009107
1560.817650,19.142581,-957.129040,-9207.581365
1560.820214,727.418070,229.710970,-9016.155557
1560.822778,153.140646,-1014.556782,-9245.866526
1560.825341,-229.710970,-1512.263883,-9035.298138
1560.827905,-1722.832272,-1129.412267,-8863.014910
1560.830468,-727.418070,401.994197,-9188.438784
1560.833032,535.992262,-76.570323,-9207.581365
1560.835596,267.996131,-38.285162,-8786.444587
1560.838159,-57.427742,-1531.406464,-8997.012976
1560.840723,267.996131,-1512.263883,-9150.153622
1560.843286,976.271621,-918.843878,-9533.005238
1560.845850,593.420005,-1148.554848,-9035.298138
1560.848413,-612.562586,-478.564520,-8939.585234
1560.850977,-1225.125171,-593.420005,-8958.727814
1560.853541,-593.420005,-344.566454,-9054.440718
1560.856104,-440.279358,306.281293,-9111.868461
1560.858668,57.427742,-1435.693560,-9303.294269
1560.861231,708.275490,-784.845813,-9207.581365
1560.863795,-210.568389,1014.556782,-8958.727814
1560.866358,-1091.127106,1665.404530,-8652.446522
1560.868922,-1531.406464,267.996131,-8767.302006
1560.871486,-2565.105827,248.853550,-8977.870395
1560.874049,-2392.822600,-172.283227,-9245.866526
1560.876613,-1473.978722,1914.258080,-9054.440718
1560.879176,-957.129040,1818.545176,-8958.727814
1560.881740,-440.279358,746.560651,-9073.583299
1560.884304,-191.425808,-210.568389,-9054.440718
1560.886867,-497.707101,-1052.841944,-9054.440718
1560.889431,-1607.976787,1703.689691,-8977.870395
1560.891994,-1531.406464,1531.406464,-8805.587168
1560.894559,-2411.965181,3292.523898,-8843.872330
1560.897124,-401.994197,-497.707101,-9226.723946
1560.899689,-19.142581,-689.132909,-9322.436850
1560.902254,-57.427742,708.275490,-8882.157491
1560.904819,-1531.406464,95.712904,-8901.300072
1560.907384,-2029.113565,2124.826469,-8805.587168
1560.909949,-2354.537438,-689.132909,-9169.296203
1560.912514,-2201.396792,1512.263883,-9207.581365
1560.915079,-1646.261949,-421.136778,-9111.868461
1560.917644,-1263.410333,2105.683888,-8901.300072
1560.920209,-344.566454,-1033.699363,-9188.438784
1560.922774,-995.414202,1990.828403,-8901.300072
1560.925339,-669.990328,248.853550,-9054.440718
1560.927904,-1761.117434,-535.992262,-8939.585234
1560.930469,-1320.838075,-631.705166,-9054.440718
1560.933034,-1799.402595,2813.959378,-8863.014910
1560.935599,-1627.119368,-1320.838075,-8977.870395
1560.938164,1014.556782,880.558717,-9035.298138
1560.940729,1416.550979,-2947.957443,-9399.007173
1560.943293,1550.549045,133.998066,-9188.438784
1560.945858,784.845813,-976.271621,-8997.012976
1560.948423,-937.986459,937.986459,-8748.159426
1560.950988,-1493.121302,-1129.412267,-9111.868461
1560.953553,-1378.265818,-1244.267752,-9131.011042
1560.956118,-229.710970,-1014.556782,-9207.581365
1560.958683,-153.140646,-765.703232,-9284.151688
1560.961248,803.988394,631.705166,-9016.155557
1560.963813,1225.125171,612.562586,-8786.444587
1560.966378,-133.998066,-1722.832272,-8920.442653
1560.968943,-1914.258080,-918.843878,-8863.014910
1560.971508,-593.420005,-1856.830338,-9437.292334
1560.974073,-459.421939,19.142581,-9073.583299
1560.976638,-133.998066,555.134843,-9131.011042
1560.979203,650.847747,-2163.111630,-9111.868461
1560.981768,593.420005,-746.560651,-9322.436850
1560.984333,976.271621,-2258.824534,-9379.864592
1560.986898,-210.568389,287.138712,-8977.870395
1560.989463,-421.136778,-631.705166,-8958.727814
1560.992028,-1607.976787,0.000000,-8863.014910
1560.994593,-899.701298,-401.994197,-9169.296203
1560.997159,-823.130974,-1014.556782,-9245.866526
1560.999725,746.560651,-440.279358,-9303.294269
1561.002292,937.986459,-689.132909,-9188.438784
1561.004858,-1186.840010,3464.807125,-8843.872330
1561.007424,-1933.400661,-765.703232,-8805.587168
1561.009990,-2469.392923,1397.408398,-8824.729749
1561.012557,-2469.392923,-1033.699363,-9265.009107
1561.015123,-2067.398726,2048.256146,-9131.011042
1561.017689,-1110.269686,1875.972918,-8901.300072
1561.020256,-880.558717,784.845813,-9016.155557
1561.022822,497.707101,19.142581,-9188.438784
1561.025388,-516.849682,-1148.554848,-9092.725880
1561.027954,-976.271621,765.703232,-9111.868461
1561.030521,-2029.113565,1033.699363,-8997.012976
1561.033087,-1741.974853,2469.392923,-8748.159426
1561.035653,-3062.812928,-2718.246474,-9169.296203
1561.038220,-1473.978722,3675.375514,-9150.153622
1561.040786,957.129040,-1416.550979,-9475.577496
1561.043352,-1703.689691,-669.990328,-8537.591037
1561.045919,-1033.699363,3445.664544,-9054.440718
1561.048485,-3790.230998,-1339.980656,-8824.729749
1561.051051,-2009.970984,2239.681954,-9188.438784
1561.053617,-1646.261949,-1761.117434,-9226.723946
1561.056184,-1493.121302,2928.814862,-8709.874264
1561.058750,325.423874,861.416136,-9207.581365
1561.061316,-1493.121302,1875.972918,-8863.014910
1561.063883,-306.281293,325.423874,-8997.012976
1561.066449,-1473.978722,-363.709035,-9092.725880
1561.069015,-1512.263883,-1148.554848,-9016.155557
1561.071581,-937.986459,3101.098090,-8997.012976
1561.074148,-2450.250342,-1914.258080,-9054.440718
1561.076714,995.414202,1071.984525,-9054.440718
1561.079280,1129.412267,-2928.814862,-9303.294269
1561.081847,1454.836141,842.273555,-9169.296203
1561.084413,746.560651,-1225.125171,-9111.868461
1561.086979,-1014.556782,287.138712,-8805.587168
1561.089545,-823.130974,-1052.841944,-9035.298138
1561.092112,-1550.549045,-1052.841944,-9054.440718
1561.094678,-306.281293,-842.273555,-9245.866526
1561.097244,248.853550,-880.558717,-9360.722011
1561.099795,861.416136,153.140646,-8958.727814
1561.102345,401.994197,382.851616,-9111.868461
1561.104896,-306.281293,-899.701298,-9054.440718
1561.107446,-1493.121302,-918.843878,-8824.729749
1561.109996,-516.849682,1091.127106,-9226.723946
1561.112547,823.130974,-1454.836141,-9360.722011
1561.115097,248.853550,650.847747,-8729.016845
1561.117647,1033.699363,-1952.543242,-9150.153622
1561.120198,306.281293,-1397.408398,-9303.294269
1561.122748,1186.840010,-1435.693560,-9322.436850
1561.125299,-229.710970,-363.709035,-9054.440718
1561.127849,-727.418070,95.712904,-8939.585234
1561.130399,-1091.127106,153.140646,-8997.012976
1561.132950,-1301.695494,191.425808,-9073.583299
1561.135500,765.703232,-1339.980656,-9188.438784
1561.138051,746.560651,-669.990328,-9322.436850
1561.140601,-19.142581,2124.826469,-9016.155557
1561.143151,-1301.695494,1473.978722,-8652.446522
1561.145702,-1186.840010,765.703232,-8729.016845
1561.148252,-2718.246474,-612.562586,-9073.583299
1561.150802,-2545.963246,401.994197,-9169.296203
1561.153353,-1646.261949,1282.552914,-8939.585234
1561.155903,-1320.838075,3177.668413,-8901.300072
1561.158454,-153.140646,-229.710970,-9207.581365
1561.161004,-210.568389,-497.707101,-8997.012976
1561.163554,-248.853550,-1110.269686,-9245.866526
1561.166105,-1148.554848,1263.410333,-9054.440718
1561.168655,-2450.250342,631.705166,-8920.442653
1561.171206,-3120.240670,3081.955509,-8786.444587
1561.173756,-76.570323,-57.427742,-9322.436850
1561.176306,497.707101,-593.420005,-9169.296203
1561.178857,-1167.697429,-267.996131,-8920.442653
1561.181407,-1780.260014,2411.965181,-8824.729749
1561.183958,-2373.680019,1091.127106,-8977.870395
1561.186508,-2545.963246,918.843878,-9111.868461
1561.189058,-1856.830338,-861.416136,-9150.153622
1561.191609,-1263.410333,1282.552914,-8939.585234
1561.194159,-555.134843,2067.398726,-9265.009107
1561.196709,-708.275490,1359.123237,-8977.870395
1561.199260,-574.277424,784.845813,-8863.014910
1561.201813,-1607.976787,-1741.974853,-9092.725880
1561.204367,-1320.838075,-880.558717,-9131.011042
1561.206920,-995.414202,3043.670347,-9054.440718
1561.209474,-1780.260014,-1856.830338,-9131.011042
1561.212028,0.000000,267.996131,-8977.870395
1561.214581,937.986459,-2622.533570,-9437.292334
1561.217135,421.136778,-1646.261949,-9188.438784
1561.219688,1052.841944,-746.560651,-9054.440718
1561.222242,-191.425808,440.279358,-8901.300072
1561.224795,-1359.123237,-574.277424,-9092.725880
1561.227349,-1416.550979,-1971.685822,-9054.440718
1561.229902,-823.130974,-516.849682,-9150.153622
1561.232456,784.845813,-76.570323,-9169.296203
1561.235009,229.710970,-784.845813,-9265.009107
1561.237563,-497.707101,-19.142581,-8843.872330
1561.240116,-555.134843,172.283227,-8901.300072
1561.242670,-440.279358,-2086.541307,-9035.298138
1561.245223,-1205.982590,133.998066,-9131.011042
1561.247777,-57.427742,-516.849682,-9513.862658
1561.250331,95.712904,-1588.834206,-9188.438784
1561.252884,421.136778,-612.562586,-9035.298138
1561.255438,1225.125171,-2737.389054,-9303.294269
1561.257991,0.000000,-708.275490,-9245.866526
1561.260545,19.142581,-459.421939,-9054.440718
1561.263098,-1071.984525,76.570323,-8939.585234
1561.265652,-1301.695494,535.992262,-9016.155557
1561.268205,-1014.556782,-1167.697429,-9035.298138
1561.270759,765.703232,-1148.554848,-9207.581365
1561.273312,497.707101,-76.570323,-9360.722011
1561.275866,-612.562586,3139.383251,-8824.729749
1561.278419,-1339.980656,-172.283227,-8805.587168
1561.280973,-2718.246474,574.277424,-8843.872330
1561.283527,-2603.390989,-516.849682,-9379.864592
1561.286080,-1703.689691,1665.404530,-9035.298138
1561.288634,-1205.982590,2335.394858,-8843.872330
1561.291187,-937.986459,478.564520,-9054.440718
1561.293741,210.568389,593.420005,-9092.725880
1561.296294,-267.996131,-727.418070,-9073.583299
1561.298848,-1052.841944,1148.554848,-8997.012976
1561.301401,-1646.261949,842.273555,-9035.298138
1561.303958,-2201.396792,4230.510357,-8595.018779
1561.306514,-1952.543242,-803.988394,-9131.011042
1561.309071,95.712904,-765.703232,-9207.581365
1561.311627,-784.845813,76.570323,-8977.870395
1561.314184,-1531.406464,1990.828403,-8767.302006
1561.316740,-2048.256146,1186.840010,-8805.587168
1561.319297,-2507.678085,1493.121302,-8958.727814
1561.321853,-2029.113565,-478.564520,-9092.725880
1561.324410,-1588.834206,1263.410333,-8920.442653
1561.326966,-1033.699363,2163.111630,-9092.725880
1561.329523,-784.845813,1167.697429,-9111.868461
1561.332079,-440.279358,918.843878,-8882.157491
1561.334636,-1493.121302,-2182.254211,-8997.012976
1561.337192,-1512.263883,-631.705166,-9188.438784
1561.339749,-708.275490,2794.816797,-9188.438784
1561.342305,-1339.980656,-2316.252277,-9245.866526
1561.344862,-38.285162,1646.261949,-9054.440718
1561.347418,38.285162,-2756.531635,-9284.151688
1561.349975,-153.140646,-727.418070,-9111.868461
1561.352531,823.130974,-459.421939,-9111.868461
1561.355088,95.712904,-516.849682,-9169.296203
1561.357644,-880.558717,-344.566454,-9073.583299
1561.360201,-1225.125171,-2105.683888,-9035.298138
1561.362757,-957.129040,-248.853550,-9016.155557
1561.365314,287.138712,-1014.556782,-9494.720077
1561.367870,823.130974,-784.845813,-9303.294269
1561.370426,-382.851616,-1607.976787,-9111.868461
1561.372983,-2086.541307,325.423874,-8939.585234
1561.375539,210.568389,-95.712904,-8939.585234
1561.378096,306.281293,-2067.398726,-9341.579430
1561.380652,153.140646,-555.134843,-9303.294269
1561.383209,57.427742,-1110.269686,-9284.151688
1561.385765,191.425808,-1148.554848,-8824.729749
1561.388322,784.845813,-1225.125171,-9245.866526
1561.390878,440.279358,-1397.408398,-9131.011042
1561.393435,-421.136778,-133.998066,-9035.298138
1561.395991,-1167.697429,459.421939,-8939.585234
1561.398548,-1397.408398,172.283227,-8958.727814
1561.401104,57.427742,-1339.980656,-9035.298138
1561.403661,937.986459,-995.414202,-9150.153622
1561.406219,-669.990328,2622.533570,-9150.153622
1561.408778,-1569.691626,497.707101,-8958.727814
1561.411337,-1263.410333,803.988394,-8843.872330
1561.413896,-2354.537438,-325.423874,-9111.868461
1561.416454,-2392.822600,459.421939,-9207.581365
1561.419013,-1512.263883,1588.834206,-8920.442653
1561.421572,-1531.406464,2220.539373,-8958.727814
1561.424130,-325.423874,1091.127106,-9111.868461
1561.426689,-133.998066,-1052.841944,-9073.583299
1561.429248,-861.416136,-459.421939,-9303.294269
1561.431806,-918.843878,1741.974853,-8901.300072
1561.434365,-1550.549045,3292.523898,-8863.014910
1561.436924,-2469.392923,-1033.699363,-8977.870395
1561.439482,-306.281293,114.855485,-9111.868461
1561.442041,-976.271621,-210.568389,-9265.009107
1561.444600,-1588.834206,1914.258080,-8958.727814
1561.447158,-1588.834206,1359.123237,-8786.444587
1561.449717,-2258.824534,1550.549045,-8977.870395
1561.452276,-2048.256146,191.425808,-9016.155557
1561.454835,-2067.398726,803.988394,-8939.585234
1561.457393,-1110.269686,650.847747,-9188.438784
1561.459952,-976.271621,2297.109696,-8920.442653
1561.462511,-344.566454,861.416136,-9188.438784
1561.465069,-1263.410333,-1646.261949,-8958.727814
1561.467628,-1550.549045,-1186.840010,-9188.438784
1561.470187,-612.562586,3062.812928,-9054.440718
1561.472745,-1091.127106,-2507.678085,-9169.296203
1561.475304,-153.140646,1282.552914,-8997.012976
1561.477863,210.568389,-1895.115499,-9303.294269
1561.480421,401.994197,-459.421939,-9111.868461
1561.482980,784.845813,-708.275490,-9035.298138
1561.485539,-191.425808,-497.707101,-9207.581365
1561.488097,-650.847747,-382.851616,-9169.296203
1561.490656,-765.703232,-2201.396792,-9073.583299
1561.493215,-1129.412267,-153.140646,-8958.727814
1561.495774,-229.710970,-1741.974853,-9360.722011
1561.498332,669.990328,382.851616,-9303.294269
1561.500891,133.998066,-1875.972918,-9341.579430
1561.503450,-2297.109696,-976.271621,-8690.731683
1561.506008,-1665.404530,535.992262,-9073.583299
1561.508569,784.845813,-1244.267752,-9265.009107
1561.511130,516.849682,267.996131,-9150.153622
1561.513691,880.558717,-1722.832272,-9111.868461
1561.516252,153.140646,-555.134843,-8786.444587
1561.518812,669.990328,-1895.115499,-9207.581365
1561.521373,-382.851616,-765.703232,-9226.723946
1561.523934,0.000000,-689.132909,-9188.438784
1561.526495,-1091.127106,650.847747,-9073.583299
1561.529056,-1301.695494,-708.275490,-9169.296203
1561.531616,172.283227,-1722.832272,-9169.296203
1561.534177,306.281293,344.566454,-9131.011042
1561.536738,-535.992262,1780.260014,-8997.012976
1561.539299,-1512.263883,937.986459,-8939.585234
1561.541860,-2067.398726,210.568389,-8958.727814
1561.544420,-2565.105827,-248.853550,-9188.438784
1561.546981,-1703.689691,1301.695494,-8958.727814
1561.549542,-1244.267752,1895.115499,-8824.729749
1561.552103,-1282.552914,1646.261949,-9035.298138
1561.554664,-287.138712,516.849682,-9111.868461
1561.557224,-516.849682,-995.414202,-9054.440718
1561.559785,-1244.267752,133.998066,-9188.438784
1561.562346,-612.562586,1837.687757,-8805.587168
1561.564907,-2794.816797,995.414202,-8786.444587
1561.567468,-1473.978722,746.560651,-9207.581365
1561.570028,-57.427742,937.986459,-9073.583299
1561.572589,-1225.125171,-880.558717,-9035.298138
1561.575150,-1225.125171,2029.113565,-8595.018779
1561.577711,-2258.824534,1895.115499,-8843.872330
1561.580272,-2584.248408,976.271621,-9035.298138
1561.582832,-2086.541307,689.132909,-9035.298138
1561.585393,-1186.840010,-114.855485,-8939.585234
1561.587954,-1205.982590,2297.109696,-9016.155557
1561.590515,-631.705166,842.273555,-9054.440718
1561.593076,-803.988394,497.707101,-9035.298138
1561.595636,-1148.554848,-2201.396792,-9035.298138
1561.598197,-803.988394,2871.387120,-9073.583299
1561.600758,-1110.269686,-2545.963246,-9150.153622
1561.603319,-210.568389,1378.265818,-9035.298138
1561.605879,478.564520,-1607.976787,-9418.149754
1561.608440,363.709035,-287.138712,-9111.868461
1561.611003,861.416136,-1837.687757,-8939.585234
1561.613566,-133.998066,363.709035,-8997.012976
1561.616129,-267.996131,-918.843878,-9284.151688
1561.618692,-459.421939,-1531.406464,-9131.011042
1561.621254,-708.275490,-19.142581,-8920.442653
1561.623817,-382.851616,-478.564520,-9092.725880
1561.626380,918.843878,1569.691626,-8824.729749
1561.628943,803.988394,-2220.539373,-9265.009107
1561.631506,-1933.400661,0.000000,-8863.014910
1561.634068,-401.994197,478.564520,-8920.442653
1561.636631,-38.285162,-1129.412267,-9111.868461
1561.639194,708.275490,267.996131,-9226.723946
1561.641757,1282.552914,-2029.113565,-9131.011042
1561.644320,76.570323,-516.849682,-9035.298138
1561.646882,937.986459,-1780.260014,-9303.294269
1561.649445,-421.136778,-440.279358,-8977.870395
1561.652008,76.570323,-1033.699363,-9016.155557
1561.654571,-1588.834206,650.847747,-8939.585234
1561.657134,-401.994197,57.427742,-9131.011042
1561.659696,746.560651,-2009.970984,-9265.009107
1561.662259,-459.421939,1359.123237,-9073.583299
1561.664822,-555.134843,1129.412267,-8958.727814
1561.667385,-1205.982590,669.990328,-8843.872330
1561.669948,-1761.117434,-191.425808,-9035.298138
1561.672511,-2622.533570,191.425808,-9226.723946
1561.675073,-1550.549045,1665.404530,-8939.585234
1561.677636,-1493.121302,2392.822600,-8863.014910
1561.680199,-1033.699363,593.420005,-9054.440718
1561.682762,-535.992262,-306.281293,-9016.155557
1561.685325,-612.562586,-478.564520,-9131.011042
1561.687887,-918.843878,727.418070,-8977.870395
1561.690450,-1435.693560,3407.379382,-8977.870395
1561.693013,-401.994197,-1339.980656,-9131.011042
1561.695576,-957.129040,-5034.498750,-8997.012976
1561.698139,-1129.412267,5493.920690,-9150.153622
1561.700701,-1799.402595,-3560.520029,-9092.725880
1561.703264,-1722.832272,5359.922624,-8633.303941
1561.705827,-1110.269686,-1148.554848,-9188.438784
1561.708390,-3177.668413,2699.103893,-8709.874264
1561.710953,-957.129040,555.134843,-9207.581365
1561.713517,-2220.539373,1148.554848,-9035.298138
1561.716081,-535.992262,1416.550979,-8863.014910
1561.718645,-421.136778,-344.566454,-9131.011042
1561.721209,-1569.691626,-363.709035,-8977.870395
1561.723773,-153.140646,-172.283227,-9188.438784
1561.726337,-2277.967115,957.129040,-9016.155557
1561.728901,669.990328,-1129.412267,-9150.153622
1561.731465,-19.142581,-899.701298,-9035.298138
1561.734029,1052.841944,-76.570323,-9188.438784
1561.736593,612.562586,-516.849682,-9035.298138
1561.739157,-995.414202,-421.136778,-8824.729749
1561.741722,-76.570323,-1129.412267,-9207.581365
1561.744286,-918.843878,-1110.269686,-9226.723946
1561.746850,153.140646,-1397.408398,-9226.723946
1561.749414,-1071.984525,-1091.127106,-9131.011042
1561.751978,38.285162,-401.994197,-9245.866526
1561.754542,1282.552914,-1952.543242,-9131.011042
1561.757106,-2009.970984,76.570323,-8939.585234
1561.759670,-210.568389,-765.703232,-9073.583299
1561.762234,-689.132909,-2488.535504,-9226.723946
1561.764798,478.564520,-210.568389,-9322.436850
1561.767362,421.136778,-2009.970984,-9322.436850
1561.769926,976.271621,-363.709035,-9092.725880
1561.772491,842.273555,-2909.672282,-9150.153622
1561.775055,-593.420005,-421.136778,-9035.298138
1561.777619,210.568389,-995.414202,-9131.011042
1561.780183,-1875.972918,344.566454,-9111.868461
1561.782747,-95.712904,-516.849682,-9245.866526
1561.785311,287.138712,-1741.974853,-9150.153622
1561.787875,95.712904,1071.984525,-9111.868461
1561.790439,-1052.841944,1301.695494,-8977.870395
1561.793003,-1359.123237,1129.412267,-8767.302006
1561.795567,-1550.549045,-459.421939,-9054.440718
1561.798131,-2565.105827,382.851616,-9188.438784
1561.800695,-1435.693560,1359.123237,-8977.870395
1561.803259,-1359.123237,2048.256146,-8805.587168
1561.805824,-823.130974,1531.406464,-9016.155557
1561.808388,-459.421939,-172.283227,-9111.868461
1561.810952,-689.132909,-287.138712,-9016.155557
1561.813516,-1359.123237,478.564520,-9188.438784
1561.816081,-1780.260014,-746.560651,-8939.585234
1561.818647,-2048.256146,3235.096155,-8863.014910
1561.821212,-937.986459,-2048.256146,-9188.438784
1561.823777,-1091.127106,3196.810994,-9016.155557
1561.826343,-937.986459,-861.416136,-9016.155557
1561.828908,-1971.685822,3005.385186,-8767.302006
1561.831474,-1435.693560,1397.408398,-8958.727814
1561.834039,-2431.107762,593.420005,-8977.870395
1561.836605,-1741.974853,1665.404530,-9092.725880
1561.839170,-1607.976787,-114.855485,-9054.440718
1561.841735,-995.414202,1722.832272,-8997.012976
1561.844301,-1033.699363,-1339.980656,-9131.011042
1561.846866,-669.990328,708.275490,-8882.157491
1561.849432,-555.134843,995.414202,-8977.870395
1561.851997,-918.843878,-1627.119368,-9131.011042
1561.854563,114.855485,363.709035,-9150.153622
1561.857128,669.990328,-2469.392923,-9418.149754
1561.859693,191.425808,114.855485,-9188.438784
1561.862259,689.132909,-1148.554848,-8920.442653
1561.864824,-497.707101,612.562586,-8863.014910
1561.867390,-421.136778,-1569.691626,-9379.864592
1561.869955,-306.281293,-1512.263883,-9188.438784
1561.872520,-287.138712,-153.140646,-8939.585234
1561.875086,-612.562586,-727.418070,-9245.866526
1561.877651,-57.427742,-861.416136,-8901.300072
1561.880217,76.570323,-76.570323,-8997.012976
1561.882782,-631.705166,-210.568389,-8958.727814
1561.885348,-555.134843,-306.281293,-9111.868461
1561.887913,708.275490,-1646.261949,-9169.296203
1561.890478,459.421939,-516.849682,-9245.866526
1561.893044,1550.549045,-937.986459,-9016.155557
1561.895609,401.994197,-1588.834206,-8997.012976
1561.898175,57.427742,-210.568389,-9150.153622
1561.900740,-401.994197,-1914.258080,-9265.009107
1561.903306,-689.132909,880.558717,-9016.155557
1561.905871,-995.414202,-1339.980656,-9169.296203
1561.908436,19.142581,-669.990328,-9054.440718
1561.911002,267.996131,440.279358,-9131.011042
1561.913567,-957.129040,1895.115499,-8901.300072
1561.916133,-1148.554848,248.853550,-8805.587168
1561.918682,-1990.828403,-57.427742,-8939.585234
1561.921231,-2545.963246,229.710970,-9360.722011
1561.923781,-1512.263883,937.986459,-9016.155557
1561.926330,-1339.980656,2316.252277,-8786.444587
1561.928880,-1225.125171,478.564520,-9016.155557
1561.931429,-459.421939,937.986459,-9016.155557
1561.933979,-401.994197,-1071.984525,-9016.155557
1561.936528,-1454.836141,650.847747,-9073.583299
1561.939078,-1263.410333,-95.712904,-8901.300072
1561.941627,-2297.109696,2718.246474,-8805.587168
1561.944176,-1282.552914,2239.681954,-9131.011042
1561.946726,-210.568389,478.564520,-9092.725880
1561.949275,-1378.265818,861.416136,-8633.303941
1561.951825,-1378.265818,1837.687757,-8843.872330
1561.954374,-2565.105827,1282.552914,-8786.444587
1561.956924,-2392.822600,1895.115499,-8958.727814
1561.959473,-1837.687757,325.423874,-9111.868461
1561.962022,-1359.123237,1493.121302,-8939.585234
1561.964572,-1091.127106,229.710970,-9131.011042
1561.967121,-1071.984525,-114.855485,-9035.298138
1561.969671,-784.845813,-1071.984525,-8997.012976
1561.972220,-880.558717,3311.666478,-8882.157491
1561.974770,-669.990328,-3062.812928,-9188.438784
1561.977319,306.281293,1512.263883,-8958.727814
1561.979868,574.277424,-2756.531635,-9513.862658
1561.982418,210.568389,363.709035,-9111.868461
1561.984967,631.705166,-1512.263883,-8882.157491
1561.987517,-401.994197,38.285162,-9016.155557
1561.990066,-612.562586,-957.129040,-9341.579430
1561.992616,19.142581,-1990.828403,-9303.294269
1561.995165,-306.281293,-650.847747,-9207.581365
1561.997714,191.425808,593.420005,-8997.012976
1562.000264,401.994197,-535.992262,-9150.153622
1562.002813,-727.418070,-995.414202,-8977.870395
1562.005363,-1684.547110,-1339.980656,-9360.722011
1562.007912,-401.994197,-1148.554848,-9111.868461
1562.010462,535.992262,-1263.410333,-9379.864592
1562.013011,1167.697429,-899.701298,-9169.296203
1562.015561,1167.697429,-995.414202,-8997.012976
1562.018110,746.560651,-746.560651,-8997.012976
1562.020663,133.998066,-899.701298,-9188.438784
1562.023215,-76.570323,-593.420005,-8997.012976
1562.025768,-995.414202,-593.420005,-9111.868461
1562.028320,-287.138712,-325.423874,-9188.438784
1562.030873,555.134843,-727.418070,-9169.296203
1562.033426,-593.420005,2239.681954,-8977.870395
1562.035978,-1397.408398,746.560651,-8920.442653
1562.038531,-976.271621,765.703232,-8748.159426
1562.041084,-1990.828403,-267.996131,-9073.583299
1562.043636,-1761.117434,727.418070,-9188.438784
1562.046189,-1665.404530,2143.969050,-8843.872330
1562.048742,-1282.552914,2220.539373,-8786.444587
1562.051294,-593.420005,574.277424,-9073.583299
1562.053847,-823.130974,-593.420005,-9111.868461
1562.056400,-516.849682,-957.129040,-9207.581365
1562.058952,-1933.400661,153.140646,-9169.296203
1562.061505,-1627.119368,3292.523898,-8863.014910
1562.064057,-976.271621,861.416136,-9245.866526
1562.066610,-727.418070,-995.414202,-9188.438784
1562.069163,-1282.552914,1703.689691,-8997.012976
1562.071715,-1875.972918,-210.568389,-8748.159426
1562.074268,-2124.826469,2565.105827,-8748.159426
1562.076821,-1818.545176,478.564520,-9016.155557
1562.079373,-2545.963246,1014.556782,-9035.298138
1562.081926,-1799.402595,842.273555,-9035.298138
1562.084479,-1493.121302,440.279358,-9111.868461
1562.087031,-746.560651,-76.570323,-9092.725880
1562.089584,-650.847747,-1454.836141,-9035.298138
1562.092136,-516.849682,2947.957443,-8882.157491
1562.094689,-1588.834206,-2450.250342,-9073.583299
1562.097242,-57.427742,1397.408398,-9092.725880
1562.099794,708.275490,-3081.955509,-9418.149754
1562.102350,287.138712,210.568389,-9092.725880
1562.104905,267.996131,-1339.980656,-8958.727814
1562.107460,-535.992262,153.140646,-8977.870395
1562.110016,-574.277424,-1148.554848,-9245.866526
1562.112571,-248.853550,-1837.687757,-9303.294269
1562.115127,-248.853550,-669.990328,-9188.438784
1562.117682,133.998066,133.998066,-9073.583299
1562.120237,478.564520,2143.969050,-8824.729749
1562.122793,1110.269686,-1607.976787,-8920.442653
1562.125348,-823.130974,803.988394,-8786.444587
1562.127903,229.710970,-497.707101,-9188.438784
1562.130459,306.281293,-306.281293,-8977.870395
1562.133014,1454.836141,191.425808,-9188.438784
1562.135570,861.416136,-1531.406464,-9035.298138
1562.138125,497.707101,19.142581,-8882.157491
1562.140680,421.136778,-2737.389054,-9303.294269
1562.143236,-899.701298,1359.123237,-8997.012976
1562.145791,-153.140646,-1148.554848,-9207.581365
1562.148346,-593.420005,382.851616,-9035.298138
1562.150902,516.849682,-1167.697429,-9207.581365
1562.153457,-842.273555,2431.107762,-9016.155557
1562.156013,-1607.976787,-57.427742,-8997.012976
1562.158568,-1531.406464,1110.269686,-8824.729749
1562.161123,-2086.541307,344.566454,-9092.725880
1562.163679,-1473.978722,612.562586,-9092.725880
1562.166234,-1569.691626,2124.826469,-8882.157491
1562.168789,-1282.552914,1493.121302,-8958.727814
1562.171345,-689.132909,1033.699363,-8997.012976
1562.173900,-823.130974,-957.129040,-9035.298138
1562.176456,-708.275490,1033.699363,-9035.298138
1562.179011,-1454.836141,2718.246474,-8997.012976
1562.181566,-1091.127106,-19.142581,-8882.157491
1562.184122,-114.855485,1454.836141,-9150.153622
1562.186677,-57.427742,-708.275490,-9073.583299
1562.189232,-2105.683888,784.845813,-8977.870395
1562.191788,-2354.537438,38.285162,-8901.300072
1562.194343,-2565.105827,1990.828403,-9035.298138
1562.196899,-1818.545176,746.560651,-9188.438784
1562.199454,-1837.687757,937.986459,-8939.585234
1562.202009,-1339.980656,1493.121302,-8958.727814
1562.204565,-1014.556782,-382.851616,-9092.725880
1562.207120,-765.703232,-306.281293,-9016.155557
1562.209675,-593.420005,-478.564520,-9111.868461
1562.212231,-1397.408398,1569.691626,-8843.872330
1562.214786,-57.427742,-1780.260014,-9092.725880
1562.217342,38.285162,-1818.545176,-9341.579430
1562.219897,516.849682,-1339.980656,-9418.149754
1562.222452,306.281293,-325.423874,-9054.440718
1562.225010,-382.851616,76.570323,-8863.014910
1562.227568,-421.136778,-880.558717,-9150.153622
1562.230126,-689.132909,-823.130974,-9150.153622
1562.232683,153.140646,-1837.687757,-9150.153622
1562.235241,-172.283227,114.855485,-9073.583299
1562.237799,-689.132909,784.845813,-9035.298138
1562.240356,1071.984525,-19.142581,-8805.587168
1562.242914,-631.705166,-1952.543242,-8997.012976
1562.245472,-1512.263883,382.851616,-8824.729749
1562.248030,-363.709035,-1665.404530,-9360.722011
1562.250587,1110.269686,-440.279358,-9111.868461
1562.253145,1952.543242,-669.990328,-9150.153622
1562.255703,689.132909,-1818.545176,-8939.585234
1562.258261,-19.142581,-784.845813,-8977.870395
1562.260818,-133.998066,-746.560651,-9150.153622
1562.263376,-976.271621,172.283227,-9073.583299
1562.265934,-95.712904,-899.701298,-9092.725880
1562.268492,76.570323,-306.281293,-9188.438784
1562.271049,-478.564520,1167.697429,-9131.011042
1562.273607,-1167.697429,1550.549045,-8767.302006
1562.276165,-1473.978722,650.847747,-8843.872330
1562.278723,-1837.687757,19.142581,-9150.153622
1562.281280,-1837.687757,497.707101,-9073.583299
1562.283838,-1359.123237,1971.685822,-8901.300072
1562.286396,-1378.265818,2297.109696,-8958.727814
1562.288954,-574.277424,995.414202,-8977.870395
1562.291511,-727.418070,-516.849682,-9111.868461
1562.294069,-823.130974,-1014.556782,-9341.579430
1562.296627,-1856.830338,153.140646,-8901.300072
1562.299185,-440.279358,4804.787781,-8920.442653
1562.301742,-918.843878,-4785.645200,-9188.438784
1562.304300,-1129.412267,5666.203917,-9035.298138
1562.306860,-1071.984525,-3081.955509,-9016.155557
1562.309420,-2277.967115,4441.078746,-8690.731683
1562.311980,-1301.695494,38.285162,-9073.583299
1562.314540,-2622.533570,114.855485,-8939.585234
1562.317100,-1952.543242,2297.109696,-8958.727814
1562.319661,-976.271621,-823.130974,-9169.296203
1562.322221,-1110.269686,880.558717,-8824.729749
1562.324781,-306.281293,-2431.107762,-9245.866526
1562.327341,-976.271621,2699.103893,-9035.298138
1562.329901,-1225.125171,-1091.127106,-9016.155557
1562.332461,-382.851616,287.138712,-8997.012976
1562.335021,19.142581,-2986.242605,-9284.151688
1562.337581,1033.699363,-459.421939,-9399.007173
1562.340141,-153.140646,-1052.841944,-9016.155557
1562.342701,-344.566454,497.707101,-8863.014910
1562.345261,-803.988394,-803.988394,-9092.725880
1562.347821,-631.705166,-1607.976787,-9188.438784
1562.350381,133.998066,-1033.699363,-9035.298138
1562.352941,325.423874,363.709035,-9035.298138
1562.355501,497.707101,-765.703232,-9169.296203
1562.358061,-1493.121302,-229.710970,-8863.014910
1562.360621,-1301.695494,-1818.545176,-9169.296203
1562.363181,-325.423874,-1225.125171,-9035.298138
1562.365741,363.709035,-1952.543242,-9475.577496
1562.368301,555.134843,-1225.125171,-9322.436850
1562.370861,1454.836141,-440.279358,-9169.296203
1562.373421,823.130974,-1780.260014,-9035.298138
1562.375981,-401.994197,-612.562586,-9016.155557
1562.378541,-593.420005,-1531.406464,-9188.438784
1562.381101,-957.129040,-38.285162,-9111.868461
1562.383661,95.712904,-1378.265818,-9207.581365
1562.386221,-57.427742,689.132909,-8977.870395
1562.388781,-1033.699363,2392.822600,-8882.157491
1562.391341,-937.986459,-555.134843,-8882.157491
1562.393901,-1895.115499,229.710970,-8997.012976
1562.396461,-2297.109696,0.000000,-9303.294269
1562.399021,-1416.550979,1493.121302,-8997.012976
1562.401581,-1339.980656,2143.969050,-8786.444587
1562.404142,-1282.552914,1493.121302,-9016.155557
1562.406702,-976.271621,-191.425808,-9035.298138
1562.409263,-689.132909,-38.285162,-8939.585234
1562.411825,-1895.115499,19.142581,-9341.579430
1562.414386,-1301.695494,2967.100024,-8997.012976
1562.416948,-746.560651,2239.681954,-9054.440718
1562.419510,19.142581,-38.285162,-8997.012976
1562.422071,-918.843878,1052.841944,-9035.298138
1562.424633,-2297.109696,-765.703232,-8748.159426
1562.427194,-2545.963246,2258.824534,-8671.589102
1562.429756,-2086.541307,1205.982590,-9131.011042
1562.432317,-2354.537438,1933.400661,-8958.727814
1562.434879,-1301.695494,612.562586,-8977.870395
1562.437441,-1531.406464,-344.566454,-8977.870395
1562.440002,-478.564520,-306.281293,-9169.296203
1562.442564,-459.421939,-765.703232,-9131.011042
1562.445125,-1225.125171,2871.387120,-8805.587168
1562.447687,-172.283227,-2603.390989,-9092.725880
1562.450249,-19.142581,-1550.549045,-9226.723946
1562.452810,1071.984525,-1665.404530,-9456.434915
1562.455372,-76.570323,0.000000,-9016.155557
1562.457933,-516.849682,-248.853550,-8958.727814
1562.460495,-344.566454,210.568389,-9035.298138
1562.463057,-516.849682,-1186.840010,-9131.011042
1562.465618,-38.285162,-2297.109696,-9150.153622
1562.468180,-689.132909,-133.998066,-9188.438784
1562.470741,803.988394,1684.547110,-9035.298138
1562.473303,38.285162,-3598.805190,-9054.440718
1562.475865,-3196.810994,1493.121302,-8690.731683
1562.478426,459.421939,-2143.969050,-9456.434915
1562.480988,153.140646,-708.275490,-9073.583299
1562.483549,2086.541307,-478.564520,-9341.579430
1562.486111,267.996131,-880.558717,-8901.300072
1562.488673,631.705166,689.132909,-8843.872330
1562.491234,363.709035,-3215.953574,-9322.436850
1562.493796,-1282.552914,1052.841944,-8863.014910
1562.496357,325.423874,-2277.967115,-9341.579430
1562.498919,-440.279358,784.845813,-8997.012976
1562.501481,401.994197,-172.283227,-9226.723946
1562.504042,-1416.550979,2641.676150,-8805.587168
1562.506604,-1071.984525,-325.423874,-8843.872330
1562.509165,-1512.263883,-765.703232,-9150.153622
1562.511728,-2699.103893,899.701298,-9245.866526
1562.514292,-727.418070,1014.556782,-8958.727814
1562.516855,-1722.832272,2584.248408,-8729.016845
1562.519418,-880.558717,1225.125171,-9092.725880
1562.521981,-1071.984525,-191.425808,-9054.440718
1562.524544,-1359.123237,-593.420005,-9169.296203
1562.527107,-38.285162,76.570323,-9226.723946
1562.529670,-1493.121302,-114.855485,-8729.016845
1562.532233,-133.998066,2756.531635,-9150.153622
1562.534796,-535.992262,-2029.113565,-9111.868461
1562.537360,-2411.965181,2909.672282,-9073.583299
1562.539923,-1722.832272,-1914.258080,-9054.440718
1562.542486,-2660.818731,3196.810994,-8461.020714
1562.545049,-1473.978722,593.420005,-9265.009107
1562.547612,-2545.963246,-38.285162,-9016.155557
1562.550175,-1129.412267,2163.111630,-8901.300072
1562.552738,-1167.697429,-2143.969050,-9226.723946
1562.555301,-612.562586,937.986459,-8939.585234
1562.557864,459.421939,459.421939,-9131.011042
1562.560427,-2258.824534,57.427742,-8805.587168
1562.562991,210.568389,-459.421939,-9188.438784
1562.565554,-669.990328,-2450.250342,-9265.009107
1562.568117,995.414202,1110.269686,-9169.296203
1562.570680,153.140646,-2182.254211,-9035.298138
1562.573243,-1110.269686,880.558717,-8824.729749
1562.575806,-38.285162,-1856.830338,-9092.725880
1562.578369,-937.986459,-516.849682,-9169.296203
1562.580932,210.568389,-2871.387120,-9494.720077
1562.583495,-325.423874,191.425808,-9054.440718
1562.586059,574.277424,-574.277424,-9092.725880
1562.588622,-1607.976787,-2220.539373,-9016.155557
1562.591185,-2545.963246,210.568389,-9169.296203
1562.593748,344.566454,-2660.818731,-9494.720077
1562.596311,1052.841944,229.710970,-9207.581365
1562.598874,1703.689691,-1971.685822,-9303.294269
1562.601437,38.285162,344.566454,-8901.300072
1562.604000,746.560651,-1741.974853,-9035.298138
1562.606563,-727.418070,-1129.412267,-9092.725880
1562.609127,-516.849682,-344.566454,-9016.155557
1562.611690,-172.283227,-1493.121302,-9169.296203
1562.614254,172.283227,842.273555,-9131.011042
1562.616819,-1167.697429,1933.400661,-8977.870395
1562.619383,-1473.978722,1167.697429,-8767.302006
1562.621948,-1761.117434,-248.853550,-8882.157491
1562.624513,-1990.828403,382.851616,-9265.009107
1562.627077,-1378.265818,918.843878,-9188.438784
1562.629642,-1225.125171,2507.678085,-8748.159426
1562.632206,-1359.123237,1914.258080,-8901.300072
1562.634771,-784.845813,803.988394,-9073.583299
1562.637336,-727.418070,-1148.554848,-9092.725880
1562.639900,-1091.127106,1205.982590,-8997.012976
1562.642465,-76.570323,-937.986459,-9207.581365
1562.645029,-1607.976787,555.134843,-8709.874264
1562.647594,-612.562586,4096.512291,-9303.294269
1562.650159,-2009.970984,-3292.523898,-8997.012976
1562.652723,-1531.406464,3732.803256,-8863.014910
1562.655288,-2679.961312,-1205.982590,-9111.868461
1562.657852,-2928.814862,3445.664544,-8671.589102
1562.660417,-1665.404530,669.990328,-9092.725880
1562.662982,-2009.970984,1320.838075,-8920.442653
1562.665546,-287.138712,-363.709035,-9169.296203
1562.668111,-880.558717,-1703.689691,-9016.155557
1562.670675,-57.427742,2737.389054,-9092.725880
1562.673240,-1244.267752,-1225.125171,-8843.872330
1562.675805,-248.853550,1129.412267,-8997.012976
1562.678369,421.136778,-3541.377448,-9303.294269
1562.680934,497.707101,-210.568389,-9360.722011
1562.683498,-95.712904,-2411.965181,-8997.012976
1562.686063,-880.558717,1014.556782,-8824.729749
1562.688628,-593.420005,-1435.693560,-9207.581365
1562.691192,-612.562586,-1110.269686,-9092.725880
1562.693757,153.140646,-1665.404530,-9073.583299
1562.696321,-593.420005,-95.712904,-9111.868461
1562.698886,957.129040,287.138712,-8977.870395
1562.701450,-497.707101,-650.847747,-8843.872330
1562.704015,-1378.265818,-19.142581,-9150.153622
1562.706580,574.277424,-3177.668413,-9360.722011
1562.709144,516.849682,229.710970,-9265.009107
1562.711709,1952.543242,-1761.117434,-9456.434915
1562.714273,191.425808,842.273555,-8958.727814
1562.716839,669.990328,-1665.404530,-9188.438784
1562.719405,-1071.984525,-535.992262,-9054.440718
1562.721971,-440.279358,-957.129040,-9092.725880
1562.724537,-229.710970,-1741.974853,-9265.009107
1562.727103,133.998066,1818.545176,-9054.440718
1562.729668,-1071.984525,2431.107762,-8709.874264
1562.732234,-1818.545176,650.847747,-8748.159426
1562.734800,-1684.547110,0.000000,-9035.298138
1562.737366,-2029.113565,-516.849682,-9284.151688
1562.739932,-995.414202,2067.398726,-9016.155557
1562.742498,-1339.980656,1971.685822,-8786.444587
1562.745063,-1282.552914,2603.390989,-8997.012976
1562.747629,-689.132909,-440.279358,-9054.440718
1562.750195,-1378.265818,-1052.841944,-9092.725880
1562.752761,-612.562586,114.855485,-9073.583299
1562.755327,-1837.687757,1818.545176,-8863.014910
1562.757893,-210.568389,3464.807125,-8863.014910
1562.760458,-669.990328,459.421939,-9111.868461
1562.763024,-1473.978722,497.707101,-8843.872330
1562.765590,-1550.549045,612.562586,-8786.444587
1562.768156,-2871.387120,1780.260014,-8767.302006
1562.770722,-2239.681954,3024.527766,-9016.155557
1562.773288,-2277.967115,363.709035,-8997.012976
1562.775854,-1454.836141,1091.127106,-8863.014910
1562.778419,-344.566454,-1914.258080,-9169.296203
1562.780985,-516.849682,-287.138712,-9169.296203
1562.783551,-535.992262,2373.680019,-8805.587168
1562.786117,-133.998066,-1454.836141,-8997.012976
1562.788683,-191.425808,-191.425808,-8920.442653
1562.791249,535.992262,-2890.529701,-9571.290400
1562.793814,-440.279358,-210.568389,-9226.723946
1562.796380,650.847747,-1339.980656,-8863.014910
1562.798946,-497.707101,516.849682,-8843.872330
1562.801512,-497.707101,-995.414202,-9150.153622
1562.804078,-306.281293,-1569.691626,-9035.298138
1562.806644,-421.136778,-1263.410333,-9169.296203
1562.809209,-267.996131,1531.406464,-8863.014910
1562.811775,1071.984525,-593.420005,-8786.444587
1562.814341,-1493.121302,267.996131,-8729.016845
1562.816907,-19.142581,-823.130974,-9131.011042
1562.819474,650.847747,-2411.965181,-9360.722011
1562.822040,1493.121302,248.853550,-9284.151688
1562.824607,995.414202,-1473.978722,-9245.866526
1562.827174,344.566454,-287.138712,-8824.729749
1562.829740,38.285162,-1454.836141,-9073.583299
1562.832307,-861.416136,-306.281293,-9111.868461
1562.834874,172.283227,-1512.263883,-9226.723946
1562.837440,95.712904,248.853550,-8977.870395
1562.840007,-1167.697429,3196.810994,-8863.014910
1562.842574,-1837.687757,344.566454,-8863.014910
1562.845141,-1990.828403,746.560651,-8843.872330
1562.847707,-1665.404530,-1071.984525,-9379.864592
1562.850274,-1416.550979,1071.984525,-9092.725880
1562.852841,-1129.412267,2201.396792,-8863.014910
1562.855407,-1435.693560,2737.389054,-8843.872330
1562.857974,-784.845813,325.423874,-8997.012976
1562.860541,-478.564520,-727.418070,-8901.300072
1562.863107,-1263.410333,1397.408398,-9131.011042
1562.865674,-1186.840010,133.998066,-9054.440718
1562.868241,-574.277424,1550.549045,-9035.298138
1562.870807,-612.562586,344.566454,-9111.868461
1562.873374,-1895.115499,1435.693560,-9054.440718
1562.875941,-1761.117434,-440.279358,-8767.302006
1562.878508,-3024.527766,1110.269686,-9111.868461
1562.881074,-2220.539373,2392.822600,-9111.868461
1562.883641,-1914.258080,1607.976787,-8901.300072
1562.886208,-1665.404530,421.136778,-8997.012976
1562.888774,-880.558717,-1071.984525,-9188.438784
1562.891341,-57.427742,-1244.267752,-9207.581365
1562.893908,-57.427742,2718.246474,-8901.300072
1562.896474,191.425808,-1014.556782,-9054.440718
1562.899041,-191.425808,-937.986459,-8958.727814
1562.901608,650.847747,-1971.685822,-9418.149754
1562.904175,-172.283227,-478.564520,-9150.153622
1562.906741,38.285162,-957.129040,-8997.012976
1562.909308,-440.279358,612.562586,-8958.727814
1562.911875,-612.562586,-1320.838075,-9131.011042
1562.914441,-535.992262,-2182.254211,-9226.723946
1562.917008,19.142581,-459.421939,-9035.298138
1562.919575,459.421939,-1167.697429,-9226.723946
1562.922142,-1588.834206,976.271621,-8767.302006
1562.924709,-1129.412267,-287.138712,-9016.155557
1562.927276,-114.855485,-2392.822600,-9131.011042
1562.929843,593.420005,-1110.269686,-9303.294269
1562.932411,1282.552914,-2029.113565,-9418.149754
1562.934978,669.990328,-57.427742,-9016.155557
1562.937545,746.560651,-574.277424,-8997.012976
1562.940112,-976.271621,-727.418070,-9092.725880
1562.942679,-440.279358,-1531.406464,-9226.723946
1562.945247,-306.281293,-1435.693560,-9169.296203
1562.947814,19.142581,650.847747,-9226.723946
1562.950381,-1071.984525,3426.521963,-8729.016845
1562.952948,-1990.828403,593.420005,-8671.589102
1562.955515,-1818.545176,-325.423874,-9092.725880
1562.958083,-2163.111630,-344.566454,-9360.722011
1562.960650,-803.988394,1129.412267,-9073.583299
1562.963217,-1186.840010,2545.963246,-8767.302006
1562.965784,-1205.982590,2718.246474,-8939.585234
1562.968351,-880.558717,-555.134843,-8997.012976
1562.970918,-1014.556782,-593.420005,-9150.153622
1562.973486,-248.853550,114.855485,-9245.866526
1562.976053,-1473.978722,727.418070,-8977.870395
1562.978620,-401.994197,880.558717,-9111.868461
1562.981187,-1741.974853,555.134843,-9207.581365
1562.983754,-1761.117434,-382.851616,-9016.155557
1562.986322,-2335.394858,76.570323,-8863.014910
1562.988889,-2411.965181,1684.547110,-8863.014910
1562.991456,-2450.250342,2660.818731,-9073.583299
1562.994023,-1856.830338,2469.392923,-8843.872330
1562.996590,-1225.125171,-1588.834206,-9131.011042
1562.999158,-363.709035,-976.271621,-9092.725880
1563.001725,76.570323,1665.404530,-9207.581365
1563.004292,-1378.265818,-899.701298,-8997.012976
1563.006859,363.709035,1263.410333,-8958.727814
1563.009426,-114.855485,-3464.807125,-9169.296203
1563.011994,-133.998066,-937.986459,-9169.296203
1563.014561,593.420005,-1818.545176,-9073.583299
1563.017128,-650.847747,1818.545176,-8863.014910
1563.019695,-287.138712,-1071.984525,-9226.723946
1563.022262,-746.560651,-1244.267752,-8977.870395
1563.024830,153.140646,-1244.267752,-9073.583299
1563.027398,459.421939,-918.843878,-9418.149754
1563.029966,-976.271621,-3043.670347,-9169.296203
1563.032533,-3043.670347,-210.568389,-8824.729749
1563.035101,-535.992262,-191.425808,-9245.866526
1563.037669,-267.996131,-2354.537438,-9341.579430
1563.040237,2239.681954,-1225.125171,-9284.151688
1563.042804,995.414202,-1741.974853,-9226.723946
1563.045372,344.566454,1014.556782,-9073.583299
1563.047940,76.570323,-2163.111630,-9188.438784
1563.050508,-1435.693560,-880.558717,-8939.585234
1563.053076,421.136778,-2354.537438,-9341.579430
1563.055643,-363.709035,631.705166,-9150.153622
1563.058211,-784.845813,3235.096155,-8997.012976
1563.060779,-2297.109696,746.560651,-8671.589102
1563.063347,-1646.261949,669.990328,-8863.014910
1563.065914,-1856.830338,-612.562586,-9226.723946
1563.068482,-1473.978722,306.281293,-9303.294269
1563.071050,-937.986459,2220.539373,-8824.729749
1563.073618,-1397.408398,2967.100024,-8920.442653
1563.076185,-880.558717,-19.142581,-9111.868461
1563.078753,-861.416136,-593.420005,-8843.872330
1563.081321,-1569.691626,1110.269686,-9245.866526
1563.083889,-574.277424,133.998066,-9226.723946
1563.086457,-229.710970,3235.096155,-8824.729749
1563.089024,-363.709035,1627.119368,-9073.583299
1563.091592,-1933.400661,229.710970,-8939.585234
1563.094160,-2048.256146,1473.978722,-8805.587168
1563.096728,-2565.105827,937.986459,-9150.153622
1563.099295,-2545.963246,2833.101958,-9035.298138
1563.101863,-1493.121302,1205.982590,-8977.870395
1563.104431,-1397.408398,1091.127106,-8939.585234
1563.106999,-440.279358,-2048.256146,-9226.723946
1563.109566,191.425808,3388.236802,-8997.012976
1563.112134,-784.845813,-2641.676150,-9092.725880
1563.114702,0.000000,1741.974853,-8997.012976
1563.117270,363.709035,-2909.672282,-9265.009107
1563.119838,-153.140646,-1091.127106,-9169.296203
1563.122405,38.285162,-1569.691626,-9092.725880
1563.124973,-95.712904,593.420005,-8958.727814
1563.127541,-459.421939,-593.420005,-9188.438784
1563.130110,-248.853550,-1359.123237,-8901.300072
1563.132678,-440.279358,-2201.396792,-9265.009107
1563.135246,-516.849682,-995.414202,-9169.296203
1563.137815,-191.425808,995.414202,-9131.011042
1563.140383,153.140646,-708.275490,-8863.014910
1563.142952,-746.560651,-555.134843,-8958.727814
1563.145520,248.853550,-1895.115499,-9169.296203
1563.148088,842.273555,-1741.974853,-9437.292334
1563.150657,650.847747,-344.566454,-9207.581365
1563.153225,899.701298,-937.986459,-9054.440718
1563.155793,-650.847747,-727.418070,-8920.442653
1563.158362,-344.566454,-1359.123237,-9169.296203
1563.160930,-478.564520,-1473.978722,-9150.153622
1563.163498,-114.855485,440.279358,-9207.581365
1563.166067,-1301.695494,3273.381317,-8882.157491
1563.168635,-1531.406464,1435.693560,-8671.589102
1563.171203,-1818.545176,-191.425808,-9111.868461
1563.173772,-2277.967115,-459.421939,-9418.149754
1563.176340,-689.132909,1091.127106,-9111.868461
1563.178908,-1071.984525,2124.826469,-8767.302006
1563.181477,-995.414202,2679.961312,-8958.727814
1563.184045,-1110.269686,-382.851616,-9169.296203
1563.186613,-937.986459,114.855485,-8863.014910
1563.189182,-363.709035,1129.412267,-9131.011042
1563.191750,-803.988394,1837.687757,-8901.300072
1563.194318,267.996131,2565.105827,-9111.868461
1563.196887,-1550.549045,-574.277424,-9035.298138
1563.199455,-2297.109696,1895.115499,-8958.727814
1563.202024,-2660.818731,-1665.404530,-8901.300072
1563.204592,-2392.822600,4326.223261,-8824.729749
1563.207160,-1435.693560,746.560651,-9265.009107
1563.209729,-1990.828403,2105.683888,-8863.014910
1563.212297,-440.279358,-1856.830338,-9131.011042
1563.214865,-612.562586,-1263.410333,-9226.723946
1563.217434,-95.712904,2507.678085,-8920.442653
1563.220002,669.990328,-2201.396792,-9131.011042
1563.222570,306.281293,842.273555,-8863.014910
1563.225139,516.849682,-2354.537438,-9399.007173
1563.227707,57.427742,229.710970,-9054.440718
1563.230260,-191.425808,-861.416136,-9035.298138
1563.232811,-555.134843,555.134843,-9054.440718
1563.235363,-574.277424,-1454.836141,-9188.438784
1563.237914,-248.853550,-1722.832272,-9111.868461
1563.240466,-478.564520,-2565.105827,-9169.296203
1563.243018,-229.710970,765.703232,-9207.581365
1563.245569,-1148.554848,-57.427742,-8920.442653
1563.248121,-708.275490,-344.566454,-8958.727814
1563.250672,306.281293,-1818.545176,-9092.725880
1563.253224,899.701298,-1761.117434,-9322.436850
1563.255775,1627.119368,-1014.556782,-9073.583299
1563.258327,669.990328,-133.998066,-9111.868461
1563.260878,363.709035,-267.996131,-9111.868461
1563.263430,-880.558717,-1512.263883,-8977.870395
1563.265981,-325.423874,-1780.260014,-9150.153622
1563.268533,-555.134843,114.855485,-9265.009107
1563.271085,-861.416136,4019.941968,-8901.300072
1563.273636,-1875.972918,287.138712,-8633.303941
1563.276188,-1646.261949,1454.836141,-8805.587168
1563.278739,-2009.970984,-1148.554848,-9341.579430
1563.281291,-1512.263883,325.423874,-9188.438784
1563.283842,-880.558717,1952.543242,-8958.727814
1563.286394,-1052.841944,3120.240670,-8901.300072
1563.288945,-823.130974,631.705166,-8843.872330
1563.291497,-1588.834206,-1320.838075,-9054.440718
1563.294048,-1473.978722,976.271621,-8958.727814
1563.296600,153.140646,784.845813,-9111.868461
1563.299152,-861.416136,1205.982590,-9188.438784
1563.301703,-650.847747,2029.113565,-8977.870395
1563.304255,-2067.398726,153.140646,-8805.587168
1563.306806,-2373.680019,1339.980656,-8729.016845
1563.309358,-2660.818731,803.988394,-9131.011042
1563.311909,-2411.965181,3043.670347,-9016.155557
1563.314461,-1512.263883,631.705166,-9073.583299
1563.317012,-1263.410333,363.709035,-8805.587168
1563.319564,19.142581,-2124.826469,-9226.723946
1563.322115,57.427742,708.275490,-8901.300072
1563.324667,669.990328,-1454.836141,-9169.296203
1563.327219,287.138712,-937.986459,-8939.585234
1563.329770,459.421939,-1607.976787,-9188.438784
1563.332324,114.855485,133.998066,-9035.298138
1563.334878,-459.421939,-1014.556782,-9035.298138
1563.337432,-248.853550,0.000000,-9207.581365
1563.339986,-746.560651,-1033.699363,-9131.011042
1563.342540,-76.570323,-1435.693560,-9150.153622
1563.345094,-880.558717,-516.849682,-9131.011042
1563.347648,650.847747,19.142581,-9111.868461
1563.350202,229.710970,-555.134843,-8977.870395
1563.352756,-1550.549045,-727.418070,-8977.870395
1563.355310,-459.421939,-2048.256146,-9456.434915
1563.357864,631.705166,-1722.832272,-9284.151688
1563.360418,1856.830338,-976.271621,-9169.296203
1563.362972,1225.125171,-1512.263883,-9150.153622
1563.365526,-440.279358,478.564520,-8958.727814
1563.368080,-382.851616,-2239.681954,-9265.009107
1563.370634,-727.418070,-957.129040,-9111.868461
1563.373188,38.285162,-746.560651,-9188.438784
1563.375742,-1627.119368,4211.367776,-8748.159426
1563.378296,-1856.830338,210.568389,-8805.587168
1563.380850,-2048.256146,114.855485,-8997.012976
1563.383404,-1933.400661,-191.425808,-9360.722011
1563.385958,-765.703232,459.421939,-9092.725880
1563.388512,-1129.412267,2584.248408,-8767.302006
1563.391066,-1110.269686,2067.398726,-8997.012976
1563.393620,-1225.125171,1282.552914,-8958.727814
1563.396174,-593.420005,650.847747,-8786.444587
1563.398728,-689.132909,-76.570323,-8997.012976
1563.401282,-555.134843,459.421939,-9111.868461
1563.403836,-76.570323,3713.660675,-9035.298138
1563.406390,-995.414202,478.564520,-8863.014910
1563.408944,-2335.394858,2182.254211,-8575.876198
1563.411498,-2163.111630,-267.996131,-8843.872330
1563.414052,-2852.244539,2813.959378,-8882.157491
1563.416607,-1435.693560,1818.545176,-9226.723946
1563.419161,-1454.836141,401.994197,-8958.727814
1563.421715,-516.849682,-765.703232,-8958.727814
1563.424269,38.285162,1052.841944,-9188.438784
1563.426823,-1454.836141,-1837.687757,-9073.583299
1563.429377,842.273555,535.992262,-9207.581365
1563.431931,-191.425808,-2833.101958,-9379.864592
1563.434487,325.423874,-1378.265818,-9150.153622
1563.437043,229.710970,-574.277424,-8977.870395
1563.439600,-306.281293,976.271621,-8939.585234
1563.442156,-267.996131,-995.414202,-9341.579430
1563.444713,-765.703232,-727.418070,-8997.012976
1563.447269,-555.134843,-1435.693560,-9054.440718
1563.449826,842.273555,-363.709035,-8977.870395
1563.452382,-669.990328,401.994197,-8901.300072
1563.454939,-650.847747,-401.994197,-8920.442653
1563.457495,-421.136778,-2258.824534,-9284.151688
1563.460052,267.996131,-1703.689691,-9341.579430
1563.462608,708.275490,-1607.976787,-9322.436850
1563.465165,1416.550979,-535.992262,-8977.870395
1563.467721,842.273555,-535.992262,-9131.011042
1563.470277,-689.132909,306.281293,-9092.725880
1563.472834,-95.712904,-2603.390989,-9188.438784
1563.475390,-267.996131,-478.564520,-9073.583299
1563.477947,-937.986459,3062.812928,-8997.012976
1563.480503,-2201.396792,1933.400661,-8709.874264
1563.483060,-1799.402595,1014.556782,-8863.014910
1563.485616,-2105.683888,-325.423874,-9265.009107
1563.488173,-1301.695494,-421.136778,-9303.294269
1563.490729,-784.845813,1895.115499,-8882.157491
1563.493286,-746.560651,2373.680019,-8882.157491
1563.495842,-995.414202,1071.984525,-8939.585234
1563.498398,-1703.689691,-1627.119368,-9092.725880
1563.500955,-1990.828403,421.136778,-8920.442653
1563.503511,-19.142581,861.416136,-9245.866526
1563.506068,-727.418070,287.138712,-9169.296203
1563.508624,-842.273555,3081.955509,-9016.155557
1563.511181,-2239.681954,248.853550,-8882.157491
1563.513737,-2277.967115,2086.541307,-8767.302006
1563.516294,-2373.680019,-306.281293,-9188.438784
1563.518850,-2545.963246,3062.812928,-9054.440718
1563.521407,-1033.699363,267.996131,-8939.585234
1563.523963,-1512.263883,344.566454,-8863.014910
1563.526519,76.570323,-937.986459,-9322.436850
1563.529076,-1129.412267,-76.570323,-8805.587168
1563.531632,1014.556782,-1263.410333,-9265.009107
1563.534189,-76.570323,-2048.256146,-9073.583299
1563.536747,-401.994197,-650.847747,-9054.440718
1563.539305,842.273555,-1014.556782,-8958.727814
1563.541864,-287.138712,344.566454,-8939.585234
1563.544422,-325.423874,-1263.410333,-9303.294269
1563.546980,-918.843878,-1473.978722,-9073.583299
1563.549538,-363.709035,-1607.976787,-9341.579430
1563.552096,-459.421939,-1378.265818,-9073.583299
1563.554655,-689.132909,-593.420005,-8786.444587
1563.557213,-1167.697429,-689.132909,-9169.296203
1563.559771,114.855485,-1837.687757,-9150.153622
1563.562329,1225.125171,172.283227,-9303.294269
1563.564888,727.418070,-2507.678085,-9399.007173
1563.567446,669.990328,-76.570323,-9111.868461
1563.570004,1033.699363,-1397.408398,-9150.153622
1563.572562,-803.988394,-287.138712,-9016.155557
1563.575120,114.855485,-669.990328,-9131.011042
1563.577679,-344.566454,-1320.838075,-9207.581365
1563.580237,-1301.695494,4670.789715,-8843.872330
1563.582795,-2737.389054,-631.705166,-8748.159426
1563.585353,-1761.117434,2794.816797,-8786.444587
1563.587912,-1627.119368,-1416.550979,-9360.722011
1563.590470,-1837.687757,803.988394,-9150.153622
1563.593028,-555.134843,1129.412267,-8958.727814
1563.595586,-1244.267752,2201.396792,-8920.442653
1563.598144,-765.703232,1818.545176,-8977.870395
1563.600703,-842.273555,363.709035,-8748.159426
1563.603261,-957.129040,784.845813,-8997.012976
1563.605819,-861.416136,1052.841944,-8786.444587
1563.608377,57.427742,2201.396792,-8997.012976
1563.610936,-1263.410333,516.849682,-8997.012976
1563.613494,-2297.109696,1952.543242,-8671.589102
1563.616052,-2450.250342,210.568389,-8729.016845
1563.618610,-2967.100024,2067.398726,-8977.870395
1563.621168,-1531.406464,1990.828403,-9131.011042
1563.623727,-1512.263883,1569.691626,-8863.014910
1563.626285,-478.564520,-1186.840010,-8977.870395
1563.628843,-210.568389,1646.261949,-9150.153622
1563.631401,-1378.265818,-2316.252277,-9150.153622
1563.633960,765.703232,1818.545176,-9016.155557
1563.636518,248.853550,-3005.385186,-9437.292334
1563.639061,19.142581,-899.701298,-9150.153622
1563.641604,-38.285162,-1148.554848,-8920.442653
1563.644147,-267.996131,210.568389,-9035.298138
1563.646690,-478.564520,-995.414202,-9284.151688
1563.649232,-669.990328,-2029.113565,-9054.440718
1563.651775,-133.998066,-2239.681954,-9131.011042
1563.654318,-1837.687757,-899.701298,-9016.155557
1563.656861,-765.703232,3311.666478,-8824.729749
1563.659404,708.275490,-3809.373579,-9245.866526
1563.661947,76.570323,153.140646,-8882.157491
1563.664490,727.418070,-2469.392923,-9399.007173
1563.667033,-114.855485,689.132909,-9054.440718
1563.669576,1780.260014,-2373.680019,-9284.151688
1563.672119,-382.851616,-1493.121302,-9092.725880
1563.674662,401.994197,-995.414202,-9035.298138
1563.677205,-172.283227,-2201.396792,-9111.868461
1563.679748,-899.701298,1799.402595,-9092.725880
1563.682290,-1780.260014,2316.252277,-8824.729749
1563.684833,-1837.687757,1473.978722,-8690.731683
1563.687376,-1990.828403,267.996131,-8997.012976
1563.689919,-2124.826469,-153.140646,-9399.007173
1563.692462,-765.703232,937.986459,-8997.012976
1563.695005,-574.277424,2316.252277,-8805.587168
1563.697548,-1071.984525,1282.552914,-9150.153622
1563.700091,-976.271621,114.855485,-8920.442653
1563.702634,-1493.121302,1091.127106,-9035.298138
1563.705177,-1301.695494,-976.271621,-9265.009107
1563.707720,-153.140646,2488.535504,-8977.870395
1563.710263,-248.853550,2258.824534,-8939.585234
1563.712806,-2086.541307,1071.984525,-8958.727814
1563.715349,-2277.967115,1818.545176,-8748.159426
1563.717891,-3292.523898,-248.853550,-9016.155557
1563.720438,-2201.396792,2584.248408,-9169.296203
1563.722984,-1684.547110,172.283227,-9169.296203
1563.725531,-995.414202,1531.406464,-8824.729749
1563.728077,-38.285162,-478.564520,-9169.296203
1563.730624,-1091.127106,937.986459,-8920.442653
1563.733170,1167.697429,-2947.957443,-9322.436850
1563.735717,114.855485,-1818.545176,-9150.153622
1563.738263,1129.412267,-1167.697429,-9092.725880
1563.740810,172.283227,1397.408398,-8882.157491
1563.743356,-593.420005,-1320.838075,-9016.155557
1563.745903,-708.275490,-325.423874,-9322.436850
1563.748449,-803.988394,-1167.697429,-9188.438784
1563.750996,689.132909,-421.136778,-8997.012976
1563.753542,344.566454,-746.560651,-9169.296203
1563.756089,-803.988394,-516.849682,-8786.444587
1563.758635,-1531.406464,440.279358,-9131.011042
1563.761182,363.709035,-2813.959378,-9169.296203
1563.763728,669.990328,191.425808,-9245.866526
1563.766275,1607.976787,-1722.832272,-9188.438784
1563.768821,650.847747,-535.992262,-8977.870395
1563.771368,440.279358,325.423874,-9016.155557
1563.773914,-421.136778,-2124.826469,-9245.866526
1563.776461,248.853550,-1091.127106,-9131.011042
1563.779007,-210.568389,-1129.412267,-9265.009107
1563.781554,-1780.260014,5245.067139,-8786.444587
1563.784100,-2871.387120,-1091.127106,-8633.303941
1563.786647,-2373.680019,1741.974853,-8824.729749
1563.789193,-1301.695494,-1110.269686,-9494.720077
1563.791740,-995.414202,1225.125171,-9054.440718
1563.794286,-689.132909,1818.545176,-8748.159426
1563.796833,-1071.984525,2029.113565,-8901.300072
1563.799379,-1167.697429,555.134843,-9035.298138
1563.801926,-861.416136,-1569.691626,-8920.442653
1563.804472,-2431.107762,-669.990328,-9207.581365
1563.807019,-689.132909,76.570323,-9379.864592
1563.809565,-669.990328,2182.254211,-9111.868461
1563.812112,-1952.543242,440.279358,-8882.157491
1563.814658,-2297.109696,1301.695494,-8824.729749
1563.817205,-3024.527766,516.849682,-8882.157491
1563.819751,-2392.822600,1741.974853,-9131.011042
1563.822298,-1665.404530,823.130974,-9322.436850
1563.824844,-1129.412267,-401.994197,-8863.014910
1563.827391,-57.427742,631.705166,-9092.725880
1563.829937,-1512.263883,-899.701298,-8997.012976
1563.832484,1110.269686,-1301.695494,-9303.294269
1563.835030,516.849682,-2699.103893,-9245.866526
1563.837577,765.703232,-1244.267752,-9226.723946
1563.840123,306.281293,535.992262,-8939.585234
1563.842673,-803.988394,382.851616,-8863.014910
1563.845223,-535.992262,-1435.693560,-9437.292334
1563.847773,-899.701298,-2086.541307,-9303.294269
1563.850324,57.427742,-2545.963246,-9341.579430
1563.852874,-1454.836141,-421.136778,-9169.296203
1563.855424,306.281293,574.277424,-9169.296203
1563.857974,-57.427742,-3120.240670,-8997.012976
1563.860524,-823.130974,-421.136778,-9207.581365
1563.863074,1320.838075,-2909.672282,-9456.434915
1563.865624,19.142581,287.138712,-9016.155557
1563.868174,1627.119368,-1435.693560,-9188.438784
1563.870725,-727.418070,-478.564520,-8958.727814
1563.873275,842.273555,-1627.119368,-9169.296203
1563.875825,-555.134843,-2258.824534,-9265.009107
1563.878375,-555.134843,1225.125171,-9226.723946
1563.880925,-2086.541307,2565.105827,-8786.444587
1563.883475,-2239.681954,2182.254211,-8671.589102
1563.886025,-1646.261949,-555.134843,-9092.725880
1563.888576,-2354.537438,95.712904,-9418.149754
1563.891126,-631.705166,708.275490,-9016.155557
1563.893676,-708.275490,2297.109696,-8767.302006
1563.896226,-612.562586,1799.402595,-8863.014910
1563.898776,-1416.550979,-306.281293,-9092.725880
1563.901326,-1990.828403,440.279358,-8767.302006
1563.903876,-1435.693560,325.423874,-9322.436850
1563.906426,-746.560651,708.275490,-9265.009107
1563.908977,-631.705166,2852.244539,-8824.729749
1563.911527,-1780.260014,1301.695494,-8767.302006
1563.914077,-2679.961312,1914.258080,-8709.874264
1563.916627,-2909.672282,38.285162,-9016.155557
1563.919177,-2469.392923,1990.828403,-9111.868461
1563.921727,-1091.127106,421.136778,-9035.298138
1563.924263,-861.416136,-114.855485,-8997.012976
1563.926800,0.000000,2029.113565,-8901.300072
1563.929336,-191.425808,-2756.531635,-8997.012976
1563.931872,823.130974,-95.712904,-9341.579430
1563.934408,421.136778,-3617.947771,-9494.720077
1563.936944,478.564520,-727.418070,-9054.440718
1563.939481,-19.142581,823.130974,-8729.016845
1563.942017,-248.853550,440.279358,-9073.583299
1563.944553,-440.279358,-1741.974853,-9245.866526
1563.947089,-382.851616,-2009.970984,-9207.581365
1563.949625,210.568389,-2086.541307,-9016.155557
1563.952161,-459.421939,1761.117434,-8939.585234
1563.954698,-114.855485,-382.851616,-8786.444587
1563.957234,-1167.697429,-1493.121302,-9054.440718
1563.959770,191.425808,-1512.263883,-9360.722011
1563.962306,727.418070,-2756.531635,-9513.862658
1563.964842,1014.556782,535.992262,-8901.300072
1563.967378,689.132909,-689.132909,-9092.725880
1563.969915,-650.847747,-287.138712,-8977.870395
1563.972451,325.423874,-3043.670347,-9303.294269
1563.974987,-210.568389,-382.851616,-9169.296203
1563.977523,-1071.984525,2354.537438,-8920.442653
1563.980059,-2488.535504,1091.127106,-8480.163294
1563.982595,-1741.974853,1627.119368,-8786.444587
1563.985132,-2373.680019,-669.990328,-9437.292334
1563.987668,-1531.406464,95.712904,-9360.722011
1563.990204,-191.425808,1607.976787,-8958.727814
1563.992740,-669.990328,2813.959378,-8748.159426
1563.995276,-823.130974,1416.550979,-9035.298138
1563.997813,-1014.556782,133.998066,-9073.583299
1564.000349,-1990.828403,-2048.256146,-9150.153622
1564.002885,-937.986459,1186.840010,-9188.438784
1564.005421,-248.853550,2469.392923,-9092.725880
1564.007957,-1895.115499,746.560651,-8882.157491
1564.010493,-2431.107762,2277.967115,-8690.731683
1564.013030,-2794.816797,-76.570323,-8863.014910
1564.015566,-2469.392923,2469.392923,-9016.155557
1564.018102,-1148.554848,995.414202,-9303.294269
1564.020638,-1148.554848,-363.709035,-8863.014910
1564.023174,-153.140646,2239.681954,-9016.155557
1564.025715,-1397.408398,-2871.387120,-8977.870395
1564.028256,1129.412267,248.853550,-9284.151688
1564.030797,650.847747,-4153.940034,-9533.005238
1564.033339,210.568389,-1110.269686,-9150.153622
1564.035880,842.273555,-306.281293,-8709.874264
1564.038421,-746.560651,689.132909,-8901.300072
1564.040962,-746.560651,-1627.119368,-9552.147819
1564.043503,-650.847747,-2048.256146,-9265.009107
1564.046044,-650.847747,-248.853550,-9226.723946
1564.048585,1244.267752,0.000000,-9016.155557
1564.051126,-746.560651,1359.123237,-8843.872330
1564.053667,-95.712904,-1435.693560,-8863.014910
1564.056208,19.142581,-1435.693560,-9533.005238
1564.058749,1186.840010,-1703.689691,-9456.434915
1564.061290,708.275490,-1282.552914,-9245.866526
1564.063831,555.134843,918.843878,-8920.442653
1564.066372,-19.142581,-1818.545176,-9092.725880
1564.068913,516.849682,-669.990328,-9207.581365
1564.071455,95.712904,-2220.539373,-9284.151688
1564.073996,-1454.836141,4613.361973,-8729.016845
1564.076537,-2545.963246,-191.425808,-8652.446522
1564.079078,-2316.252277,2526.820666,-8748.159426
1564.081619,-1684.547110,-957.129040,-9456.434915
1564.084160,-1588.834206,669.990328,-9188.438784
1564.086701,-363.709035,1186.840010,-8920.442653
1564.089242,-823.130974,2258.824534,-8824.729749
1564.091783,-746.560651,1014.556782,-9245.866526
1564.094324,-995.414202,-3330.809059,-9035.298138
1564.096865,-2641.676150,5072.783912,-8748.159426
1564.099406,574.277424,-210.568389,-9360.722011
1564.101947,-823.130974,631.705166,-8729.016845
1564.104488,-1110.269686,2163.111630,-8958.727814
1564.107029,-4230.510357,765.703232,-8729.016845
1564.109571,-2450.250342,1416.550979,-8882.157491
1564.112112,-1933.400661,-172.283227,-9418.149754
1564.114653,-1512.263883,2775.674216,-9073.583299
1564.117194,-248.853550,-1588.834206,-9035.298138
1564.119735,-1033.699363,3809.373579,-8805.587168
1564.122276,-363.709035,-4900.500685,-9226.723946
1564.124817,1244.267752,1895.115499,-9131.011042
1564.127363,765.703232,-4766.502619,-9552.147819
1564.129908,229.710970,-172.283227,-9131.011042
1564.132454,-574.277424,-401.994197,-8767.302006
1564.134999,-784.845813,95.712904,-9111.868461
1564.137545,-918.843878,-937.986459,-9456.434915
1564.140090,-76.570323,-1722.832272,-9016.155557
1564.142636,382.851616,-1359.123237,-9131.011042
1564.145182,-19.142581,-114.855485,-9131.011042
1564.147727,-784.845813,784.845813,-8767.302006
1564.150273,-535.992262,-1914.258080,-9035.298138
1564.152818,172.283227,-1741.974853,-9533.005238
1564.155364,1263.410333,-2813.959378,-9533.005238
1564.157909,1091.127106,95.712904,-8997.012976
1564.160455,306.281293,-210.568389,-9092.725880
1564.163001,-229.710970,-440.279358,-8958.727814
1564.165546,574.277424,-3005.385186,-9265.009107
1564.168092,-995.414202,459.421939,-9150.153622
1564.170637,-2469.392923,3369.094221,-8882.157491
1564.173183,-2411.965181,995.414202,-8595.018779
1564.175728,-1799.402595,1359.123237,-8977.870395
1564.178274,-1799.402595,-306.281293,-9418.149754
1564.180820,-1263.410333,229.710970,-9092.725880
1564.183365,-459.421939,1627.119368,-8786.444587
1564.185911,-306.281293,2182.254211,-8882.157491
1564.188456,-1205.982590,114.855485,-9188.438784
1564.191002,-2297.109696,-1091.127106,-8997.012976
1564.193547,-1856.830338,1205.982590,-9284.151688
1564.196093,-19.142581,-612.562586,-9303.294269
1564.198639,-1205.982590,2411.965181,-8920.442653
1564.201184,-1914.258080,861.416136,-8863.014910
1564.203730,-3541.377448,2354.537438,-8671.589102
1564.206275,-2469.392923,-325.423874,-9169.296203
1564.208821,-2124.826469,153.140646,-9245.866526
1564.211366,-574.277424,1225.125171,-9016.155557
1564.213912,-459.421939,516.849682,-8977.870395
1564.216458,-976.271621,1110.269686,-8786.444587
1564.219003,957.129040,-3751.945837,-9188.438784
1564.221549,1378.265818,-784.845813,-9150.153622
1564.224094,1493.121302,-2833.101958,-9552.147819
1564.226640,-38.285162,937.986459,-8901.300072
1564.229190,-1110.269686,76.570323,-8882.157491
1564.231740,-1339.980656,-478.564520,-9418.149754
1564.234289,-574.277424,-2277.967115,-9265.009107
1564.236839,-421.136778,-1875.972918,-9284.151688
1564.239389,344.566454,19.142581,-9054.440718
1564.241938,976.271621,-765.703232,-9035.298138
1564.244488,-1282.552914,535.992262,-8786.444587
1564.247038,-38.285162,-2239.681954,-9322.436850
1564.249587,669.990328,-2335.394858,-9418.149754
1564.252137,1110.269686,-1014.556782,-9245.866526
1564.254687,689.132909,-650.847747,-9016.155557
1564.257236,-574.277424,-133.998066,-8882.157491
1564.259786,325.423874,-1684.547110,-9226.723946
1564.262336,-172.283227,-1186.840010,-9207.581365
1564.264885,-918.843878,3005.385186,-9054.440718
1564.267435,-2660.818731,-325.423874,-8671.589102
1564.269985,-2277.967115,3081.955509,-8748.159426
1564.272534,-1856.830338,-803.988394,-9284.151688
1564.275084,-1722.832272,1014.556782,-9092.725880
1564.277634,-114.855485,727.418070,-9054.440718
1564.280183,-784.845813,1665.404530,-8958.727814
1564.282733,-133.998066,1952.543242,-9054.440718
1564.285282,-727.418070,-440.279358,-9111.868461
1564.287832,-1684.547110,1588.834206,-8729.016845
1564.290382,229.710970,650.847747,-9245.866526
1564.292931,-995.414202,1071.984525,-9035.298138
1564.295481,-2239.681954,1531.406464,-8901.300072
1564.298031,-3120.240670,918.843878,-8824.729749
1564.300580,-2603.390989,1722.832272,-8901.300072
1564.303130,-2220.539373,0.000000,-9265.009107
1564.305680,-1301.695494,1033.699363,-9150.153622
1564.308229,-57.427742,76.570323,-9035.298138
1564.310779,-937.986459,1435.693560,-8671.589102
1564.313329,1033.699363,-3196.810994,-9226.723946
1564.315878,1512.263883,-401.994197,-9073.583299
1564.318428,1263.410333,-2679.961312,-9533.005238
1564.320978,478.564520,191.425808,-9111.868461
1564.323527,-995.414202,-440.279358,-8786.444587
1564.326077,-880.558717,57.427742,-9169.296203
1564.328627,-1110.269686,-669.990328,-9150.153622
1564.331179,842.273555,-746.560651,-9035.298138
1564.333732,-535.992262,-2316.252277,-8939.585234
1564.336285,95.712904,2392.822600,-8709.874264
1564.338838,248.853550,-1627.119368,-9016.155557
1564.341390,-287.138712,-306.281293,-8748.159426
1564.343943,1588.834206,-2392.822600,-9513.862658
1564.346496,440.279358,-2182.254211,-9284.151688
1564.349049,746.560651,1282.552914,-8977.870395
1564.351602,-229.710970,-2584.248408,-9073.583299
1564.354154,248.853550,306.281293,-9073.583299
1564.356707,210.568389,-2488.535504,-9341.579430
1564.359260,-1971.685822,4919.643266,-8901.300072
1564.361813,-2813.959378,-765.703232,-8843.872330
1564.364365,-2794.816797,2890.529701,-8786.444587
1564.366918,-1339.980656,-689.132909,-9284.151688
1564.369471,-1684.547110,1339.980656,-8977.870395
1564.372024,-421.136778,1186.840010,-8958.727814
1564.374576,-325.423874,1148.554848,-8958.727814
1564.377129,-535.992262,1071.984525,-9111.868461
1564.379682,-1971.685822,-746.560651,-8920.442653
1564.382235,-1856.830338,363.709035,-9016.155557
1564.384788,-727.418070,440.279358,-9322.436850
1564.387340,-861.416136,2641.676150,-8901.300072
1564.389893,-1837.687757,1818.545176,-8709.874264
1564.392446,-2737.389054,1607.976787,-8556.733618
1564.394999,-2737.389054,842.273555,-8958.727814
1564.397551,-2297.109696,497.707101,-9150.153622
1564.400104,-1129.412267,765.703232,-9111.868461
1564.402657,-344.566454,1454.836141,-9035.298138
1564.405210,-1052.841944,-287.138712,-8863.014910
1564.407762,1186.840010,-2086.541307,-9226.723946
1564.410315,842.273555,-3139.383251,-9341.579430
1564.412868,1607.976787,-1818.545176,-9207.581365
1564.415421,765.703232,1225.125171,-8920.442653
1564.417974,-1205.982590,191.425808,-8901.300072
1564.420526,-1071.984525,-784.845813,-9303.294269
1564.423079,-937.986459,-1359.123237,-9073.583299
1564.425632,708.275490,-2794.816797,-9245.866526
1564.428185,-727.418070,363.709035,-9054.440718
1564.430737,95.712904,-248.853550,-8901.300072
1564.433293,-918.843878,-95.712904,-8882.157491
1564.435849,287.138712,-1703.689691,-9188.438784
1564.438404,784.845813,-2526.820666,-9379.864592
1564.440960,746.560651,172.283227,-9054.440718
1564.443516,842.273555,-937.986459,-9226.723946
1564.446071,-133.998066,-172.283227,-8824.729749
1564.448627,382.851616,-2622.533570,-9265.009107
1564.451183,-1397.408398,1703.689691,-9169.296203
1564.453738,-1856.830338,1225.125171,-8920.442653
1564.456294,-2048.256146,2603.390989,-8709.874264
1564.458850,-2603.390989,95.712904,-9092.725880
1564.461405,-2297.109696,937.986459,-9150.153622
1564.463961,-880.558717,-210.568389,-9054.440718
1564.466517,-421.136778,2526.820666,-8863.014910
1564.469073,-76.570323,1301.695494,-9341.579430
1564.471628,-516.849682,612.562586,-8958.727814
1564.474184,-2316.252277,-1033.699363,-8939.585234
1564.476740,-1990.828403,2660.818731,-8997.012976
1564.479295,172.283227,1990.828403,-9226.723946
1564.481851,-1799.402595,842.273555,-8997.012976
1564.484407,-2488.535504,2258.824534,-8671.589102
1564.486962,-2756.531635,497.707101,-8729.016845
1564.489518,-2871.387120,1990.828403,-8997.012976
1564.492074,-1665.404530,-957.129040,-9456.434915
1564.494629,-899.701298,1225.125171,-8939.585234
1564.497185,-248.853550,2029.113565,-8786.444587
1564.499741,-191.425808,-4211.367776,-9092.725880
1564.502296,1933.400661,1875.972918,-9073.583299
1564.504852,1014.556782,-4326.223261,-9609.575562
1564.507408,-478.564520,-1378.265818,-9245.866526
1564.509963,306.281293,-823.130974,-8901.300072
1564.512519,-689.132909,1263.410333,-8863.014910
1564.515075,-842.273555,-1435.693560,-9341.579430
1564.517630,-287.138712,-1301.695494,-9092.725880
1564.520186,382.851616,-1588.834206,-9073.583299
1564.522742,842.273555,-976.271621,-9092.725880
1564.525297,-1933.400661,516.849682,-8939.585234
1564.527853,-76.570323,-2163.111630,-9207.581365
1564.530409,497.707101,-2143.969050,-9341.579430
1564.532964,1607.976787,-2450.250342,-9552.147819
1564.535523,516.849682,-957.129040,-9226.723946
1564.538081,-57.427742,-401.994197,-8863.014910
1564.540639,95.712904,-1244.267752,-9188.438784
1564.543198,-459.421939,-382.851616,-9111.868461
1564.545756,-1301.695494,3215.953574,-8843.872330
1564.548315,-2947.957443,19.142581,-8805.587168
1564.550873,-2316.252277,2794.816797,-8748.159426
1564.553431,-2354.537438,-803.988394,-9284.151688
1564.555990,-1569.691626,1550.549045,-8863.014910
1564.558548,-153.140646,1435.693560,-8920.442653
1564.561106,-440.279358,1703.689691,-8863.014910
1564.563665,-612.562586,382.851616,-9092.725880
1564.566223,-229.710970,1186.840010,-8863.014910
1564.568781,-2335.394858,765.703232,-8633.303941
1564.571340,0.000000,3196.810994,-9073.583299
1564.573898,-555.134843,784.845813,-9035.298138
1564.576457,-2852.244539,2679.961312,-8595.018779
1564.579015,-2258.824534,516.849682,-8939.585234
1564.581573,-3081.955509,1607.976787,-8843.872330
1564.584132,-1512.263883,880.558717,-9379.864592
1564.586690,-1301.695494,57.427742,-9188.438784
1564.589248,19.142581,2450.250342,-8997.012976
1564.591807,-1186.840010,-2354.537438,-8920.442653
1564.594365,1512.263883,267.996131,-9303.294269
1564.596923,995.414202,-5627.918755,-9571.290400
1564.599482,-535.992262,-765.703232,-9092.725880
1564.602040,650.847747,-1033.699363,-8843.872330
1564.604598,-727.418070,1359.123237,-8805.587168
1564.607157,-918.843878,-1263.410333,-9226.723946
1564.609715,-1646.261949,-2775.674216,-9322.436850
1564.612274,-1397.408398,363.709035,-8920.442653
1564.614832,746.560651,2794.816797,-9265.009107
1564.617390,382.851616,-2086.541307,-9016.155557
1564.619949,0.000000,-95.712904,-8595.018779
1564.622507,669.990328,-3273.381317,-9494.720077
1564.625065,459.421939,38.285162,-9322.436850
1564.627624,1588.834206,-1799.402595,-9418.149754
1564.630182,-363.709035,-765.703232,-8843.872330
1564.632740,957.129040,-1148.554848,-9035.298138
1564.635299,-306.281293,-1531.406464,-9131.011042
1564.637859,-1952.543242,4900.500685,-8843.872330
1564.640420,-2545.963246,-976.271621,-8843.872330
1564.642980,-2622.533570,3560.520029,-8786.444587
1564.645540,-1837.687757,-1397.408398,-9341.579430
1564.648101,-2086.541307,2201.396792,-8939.585234
1564.650661,-401.994197,287.138712,-8939.585234
1564.653221,-421.136778,1627.119368,-9016.155557
1564.655782,172.283227,2067.398726,-9016.155557
1564.658342,-784.845813,-2182.254211,-8958.727814
1564.660903,-2431.107762,1416.550979,-8863.014910
1564.663463,-459.421939,-325.423874,-9322.436850
1564.666023,-1416.550979,2392.822600,-9035.298138
1564.668584,-2201.396792,976.271621,-8863.014910
1564.671144,-3330.809059,1512.263883,-8748.159426
1564.673704,-2871.387120,325.423874,-8901.300072
1564.676265,-1550.549045,612.562586,-9226.723946
1564.678825,-976.271621,-325.423874,-9131.011042
1564.681386,-382.851616,3828.516160,-8901.300072
1564.683946,-746.560651,-4326.223261,-9092.725880
1564.686506,1531.406464,1512.263883,-9226.723946
1564.689067,880.558717,-5742.774240,-9456.434915
1564.691627,-306.281293,-631.705166,-9131.011042
1564.694187,-210.568389,-669.990328,-8863.014910
1564.696748,-880.558717,727.418070,-8939.585234
1564.699308,-803.988394,-1282.552914,-9188.438784
1564.701869,-1435.693560,-3426.521963,-9303.294269
1564.704429,191.425808,57.427742,-8997.012976
1564.706989,650.847747,-1722.832272,-9245.866526
1564.709550,-1282.552914,1665.404530,-8690.731683
1564.712110,382.851616,-2258.824534,-9169.296203
1564.714670,555.134843,-2105.683888,-9341.579430
1564.717231,1895.115499,-1397.408398,-9494.720077
1564.719791,497.707101,-1148.554848,-9035.298138
1564.722351,306.281293,172.283227,-9150.153622
1564.724912,-95.712904,-2316.252277,-9035.298138
1564.727472,-344.566454,1186.840010,-8958.727814
1564.730033,-2316.252277,612.562586,-8958.727814
1564.732593,-2335.394858,2316.252277,-8882.157491
1564.735153,-2545.963246,-38.285162,-9092.725880
1564.737714,-2431.107762,1186.840010,-9131.011042
1564.740276,-1205.982590,57.427742,-9016.155557
1564.742838,-535.992262,2411.965181,-8767.302006
1564.745401,-95.712904,995.414202,-9245.866526
1564.747963,57.427742,918.843878,-8997.012976
1564.750525,-823.130974,-1454.836141,-8939.585234
1564.753087,-2794.816797,344.566454,-9073.583299
1564.755650,-401.994197,2737.389054,-9169.296203
1564.758212,-1780.260014,1282.552914,-8939.585234
1564.760774,-2316.252277,2258.824534,-8767.302006
1564.763336,-2565.105827,650.847747,-8843.872330
1564.765899,-2871.387120,1799.402595,-8863.014910
1564.768461,-1435.693560,-133.998066,-9341.579430
1564.771023,-937.986459,478.564520,-9035.298138
1564.773586,-306.281293,1416.550979,-8863.014910
1564.776148,1071.984525,-3445.664544,-9073.583299
1564.778710,2239.681954,-95.712904,-8977.870395
1564.781272,1607.976787,-2584.248408,-9399.007173
1564.783835,-440.279358,19.142581,-8977.870395
1564.786397,-593.420005,-1186.840010,-9035.298138
1564.788959,-1129.412267,114.855485,-9054.440718
1564.791521,-995.414202,-1895.115499,-9303.294269
1564.794084,-210.568389,-2718.246474,-9073.583299
1564.796646,-1129.412267,-1033.699363,-9245.866526
1564.799208,133.998066,133.998066,-9207.581365
1564.801771,153.140646,459.421939,-8805.587168
1564.804333,842.273555,-1110.269686,-9131.011042
1564.806895,708.275490,-1990.828403,-9437.292334
1564.809457,669.990328,-2086.541307,-9169.296203
1564.812020,133.998066,-727.418070,-9111.868461
1564.814582,593.420005,-1397.408398,-9131.011042
1564.817144,-153.140646,-114.855485,-8958.727814
1564.819706,-1378.265818,3043.670347,-8939.585234
1564.822271,-3120.240670,976.271621,-8729.016845
1564.824835,-2124.826469,2163.111630,-9016.155557
1564.827399,-1971.685822,-287.138712,-9341.579430
1564.829963,-1780.260014,1550.549045,-8939.585234
1564.832527,-631.705166,918.843878,-8920.442653
1564.835091,-555.134843,2373.680019,-8767.302006
1564.837655,-306.281293,114.855485,-9265.009107
1564.840219,-459.421939,957.129040,-8901.300072
1564.842784,-2048.256146,325.423874,-8709.874264
1564.845348,-516.849682,3235.096155,-9035.298138
1564.847912,-957.129040,1435.693560,-9188.438784
1564.850476,-2565.105827,1646.261949,-8729.016845
1564.853040,-2488.535504,1569.691626,-8824.729749
1564.855604,-2928.814862,459.421939,-8958.727814
1564.858168,-1454.836141,1263.410333,-9207.581365
1564.860733,-1129.412267,-1263.410333,-9226.723946
1564.863297,-210.568389,4460.221326,-8786.444587
1564.865861,650.847747,-5704.489078,-9245.866526
1564.868425,1875.972918,1952.543242,-9073.583299
1564.870989,1569.691626,-3962.514226,-9647.860723
1564.873553,-172.283227,-210.568389,-9016.155557
1564.876117,-421.136778,-1359.123237,-8977.870395
1564.878681,-803.988394,937.986459,-8805.587168
1564.881246,-918.843878,-95.712904,-9111.868461
1564.883810,-57.427742,-957.129040,-9035.298138
1564.886374,650.847747,-3637.090352,-9456.434915
1564.888938,-918.843878,-114.855485,-8882.157491
1564.891502,-1110.269686,593.420005,-9054.440718
1564.894066,478.564520,-1684.547110,-9035.298138
1564.896630,2067.398726,-1014.556782,-9188.438784
1564.899194,803.988394,-3330.809059,-9494.720077
1564.901759,-38.285162,1167.697429,-8939.585234
1564.904323,937.986459,-1761.117434,-9169.296203
1564.906887,-823.130974,344.566454,-8977.870395
1564.909451,-535.992262,2469.392923,-8997.012976
1564.912015,-3522.234867,842.273555,-8652.446522
1564.914579,-1914.258080,2258.824534,-9111.868461
1564.917143,-2699.103893,-746.560651,-9265.009107
1564.919707,-1799.402595,1339.980656,-9169.296203
1564.922272,-823.130974,306.281293,-8786.444587
1564.924837,-1320.838075,2737.389054,-8901.300072
1564.927402,689.132909,957.129040,-9169.296203
1564.929968,-1359.123237,-2029.113565,-8977.870395
1564.932533,-1397.408398,1473.978722,-9054.440718
1564.935098,-1205.982590,-669.990328,-9169.296203
1564.937663,-1646.261949,2833.101958,-8997.012976
