#time,accel_x,accel_y,accel_z
1723.704368,-296.082377,-74464.482406,2516.700203
1723.706922,592.164754,-74924.139704,-592.164754
1723.709476,-148.041188,-74004.825107,-592.164754
1723.712031,-1184.329507,-74004.825107,1628.453072
1723.714585,1776.494261,-74617.701505,2368.659014
1723.717139,-148.041188,-74464.482406,2072.576638
1723.719693,148.041188,-74770.920605,1628.453072
1723.722248,-444.123565,-74464.482406,-740.205942
1723.724802,-296.082377,-74158.044206,2812.782580
1723.727356,592.164754,-75077.358804,4145.153275
1723.729910,1036.288319,-73851.606007,2960.823768
1723.732465,148.041188,-74311.263306,1924.535449
1723.735019,740.205942,-73851.606007,1332.370696
1723.737573,-444.123565,-74158.044206,148.041188
1723.740127,-296.082377,-73851.606007,3256.906145
1723.742682,-2072.576638,-74617.701505,4293.194464
1723.745236,18949.272115,-75690.235202,-2960.823768
1723.747790,10658.965565,-71859.757712,-2960.823768
1723.750344,3701.029710,-74464.482406,-1628.453072
1723.752899,4589.276840,-74158.044206,444.123565
1723.755453,-8438.347739,-76456.330700,-2220.617826
1723.758007,444.123565,-75383.797003,-18209.066173
1723.760561,-8586.388927,-75537.016103,-9178.553681
1723.763116,6513.812290,-73851.606007,-1924.535449
1723.765670,15692.365970,-72012.976812,1628.453072
1723.768224,-3404.947333,-74158.044206,12731.542202
1723.770778,12583.501014,-75537.016103,-1628.453072
1723.773333,-3849.070898,-77375.645298,1628.453072
1723.775887,-9178.553681,-74311.263306,5477.523971
1723.778441,-11251.130318,-72319.415011,10658.965565
1723.780995,-2220.617826,-74311.263306,7550.100608
1723.783550,3701.029710,-74770.920605,4589.276840
1723.786104,2072.576638,-74311.263306,3701.029710
1723.788658,-6217.729913,-74311.263306,3997.112087
1723.791186,-8438.347739,-72932.291410,2960.823768
1723.793713,-5329.482782,-74617.701505,10658.965565
1723.796241,-5181.441594,-75383.797003,7698.141797
1723.798769,-148.041188,-75537.016103,6809.894666
1723.801297,-13619.789333,-72779.072310,740.205942
1723.803824,-7994.224174,-74158.044206,-2664.741391
1723.806352,1332.370696,-72932.291410,148.041188
1723.808880,-4885.359217,-75690.235202,6513.812290
1723.811407,-1332.370696,-73698.386908,1184.329507
1723.813935,12287.418637,-73391.948708,2516.700203
1723.816463,-17468.860231,-75230.577904,7550.100608
1723.818990,-9918.759623,-74617.701505,-2368.659014
1723.821518,12879.583391,-71706.538613,3404.947333
1723.824046,-7550.100608,-73698.386908,9326.594869
1723.826573,-0.000000,-72625.853210,9622.677246
1723.829101,-2220.617826,-75230.577904,16876.695478
1723.831629,-8290.306550,-74924.139704,4589.276840
1723.834156,-14211.954086,-74004.825107,-444.123565
1723.836684,4293.194464,-74004.825107,2664.741391
1723.839212,14508.036463,-72779.072310,-444.123565
1723.841739,-12583.501014,-73085.510509,148.041188
1723.844267,-2960.823768,-72625.853210,9178.553681
1723.846795,-2812.782580,-73698.386908,7698.141797
1723.849323,-5181.441594,-74924.139704,7846.182985
1723.851850,12435.459826,-76149.892501,7698.141797
1723.854378,-9178.553681,-74158.044206,7254.018232
1723.856906,-10807.006753,-72319.415011,2368.659014
1723.859433,19245.354492,-75383.797003,-3849.070898
1723.861961,2516.700203,-74770.920605,-15100.201217
1723.864489,-6217.729913,-71706.538613,2664.741391
1723.867016,15544.324782,-73851.606007,4145.153275
1723.869544,-3849.070898,-73545.167808,2812.782580
1723.872072,-1036.288319,-76609.549800,2664.741391
1723.874599,6661.853478,-76609.549800,-8142.265362
1723.877127,-7402.059420,-74617.701505,-9918.759623
1723.879655,2812.782580,-74311.263306,-0.000000
1723.882182,13323.706956,-72319.415011,1924.535449
1723.884710,2368.659014,-73545.167808,-1332.370696
1723.887238,8882.471304,-74311.263306,-2516.700203
1723.889766,2368.659014,-75230.577904,-3108.864956
1723.892301,-10955.047942,-74770.920605,1776.494261
1723.894836,1480.411884,-73698.386908,2368.659014
1723.897371,3997.112087,-71859.757712,-3108.864956
1723.899907,6217.729913,-72319.415011,-7550.100608
1723.902442,9770.718434,-75690.235202,-12139.377449
1723.904977,5477.523971,-72932.291410,3256.906145
1723.907512,-6661.853478,-75690.235202,6661.853478
1723.910047,7105.977043,-72625.853210,4885.359217
1723.912583,-15840.407159,-74770.920605,-6513.812290
1723.915118,9770.718434,-72166.195912,-17172.777854
1723.917653,2812.782580,-74158.044206,-4589.276840
1723.920188,17172.777854,-74464.482406,-5181.441594
1723.922724,6957.935855,-72779.072310,-5033.400406
1723.925259,2220.617826,-74004.825107,-4293.194464
1723.927794,2664.741391,-75077.358804,-7105.977043
1723.930329,10214.842000,-74004.825107,-5625.565159
1723.932865,4293.194464,-73851.606007,-740.205942
1723.935400,1776.494261,-73698.386908,4737.318029
1723.937935,4293.194464,-74004.825107,148.041188
1723.940470,1776.494261,-73545.167808,-2960.823768
1723.943006,3552.988522,-75843.454302,-5625.565159
1723.945541,12583.501014,-75230.577904,-7402.059420
1723.948076,6069.688724,-74311.263306,-5329.482782
1723.950611,-7698.141797,-72319.415011,2220.617826
1723.953147,10955.047942,-71706.538613,296.082377
1723.955682,-10807.006753,-73085.510509,7550.100608
1723.958217,5329.482782,-75690.235202,-2072.576638
1723.960752,-13619.789333,-76915.987999,18061.024985
1723.963288,8882.471304,-74158.044206,2812.782580
1723.965823,-5921.647536,-74311.263306,8882.471304
1723.968358,-4441.235652,-74617.701505,-148.041188
1723.970893,-8142.265362,-72779.072310,8438.347739
1723.973429,-6661.853478,-74464.482406,7105.977043
1723.975964,444.123565,-74158.044206,6513.812290
1723.978499,1036.288319,-75383.797003,4737.318029
1723.981034,6661.853478,-74004.825107,1332.370696
1723.983570,-12583.501014,-73698.386908,5625.565159
1723.986105,-6661.853478,-74004.825107,4441.235652
1723.988640,1776.494261,-73391.948708,7994.224174
1723.991175,1036.288319,-75077.358804,9178.553681
1723.993718,9622.677246,-74464.482406,2812.782580
1723.996259,3997.112087,-69867.909418,-2072.576638
1723.998801,-296.082377,-72932.291410,-9178.553681
1724.001343,4885.359217,-73238.729609,17764.942608
1724.003885,-13175.665768,-76149.892501,7105.977043
1724.006427,3256.906145,-73851.606007,-5477.523971
1724.008969,-23242.466579,-74770.920605,13175.665768
1724.011510,-5477.523971,-73698.386908,-592.164754
1724.014052,11695.253884,-71706.538613,4589.276840
1724.016594,-18357.107362,-74158.044206,11991.336260
1724.019136,-3701.029710,-72319.415011,17320.819043
1724.021678,-10066.800811,-75690.235202,17616.901420
1724.024220,444.123565,-75077.358804,4441.235652
1724.026761,-19245.354492,-75996.673402,2812.782580
1724.029303,-888.247130,-74004.825107,-2220.617826
1724.031845,12435.459826,-73238.729609,-4589.276840
1724.034387,-25167.002028,-74464.482406,2220.617826
1724.036929,8290.306550,-72319.415011,14211.954086
1724.039471,-3701.029710,-74770.920605,15840.407159
1724.042012,-4885.359217,-74617.701505,8290.306550
1724.044554,10658.965565,-76915.987999,8586.388927
1724.047096,-5921.647536,-74464.482406,9770.718434
1724.049638,-6809.894666,-72932.291410,-7402.059420
1724.052180,20577.725188,-75077.358804,-8734.430116
1724.054722,-8142.265362,-74004.825107,-15100.201217
1724.057263,17024.736666,-72166.195912,7105.977043
1724.059805,3256.906145,-72625.853210,-2368.659014
1724.062347,-888.247130,-72319.415011,2220.617826
1724.064889,7846.182985,-75690.235202,2812.782580
1724.067431,-1628.453072,-77682.083497,-2516.700203
1724.069972,5921.647536,-73238.729609,-4885.359217
1724.072514,10066.800811,-75230.577904,-0.000000
1724.075056,-9178.553681,-72779.072310,-6661.853478
1724.077598,18209.066173,-73085.510509,1036.288319
1724.080140,4737.318029,-74311.263306,-7698.141797
1724.082682,-7550.100608,-74464.482406,-6069.688724
1724.085223,16284.530724,-74158.044206,148.041188
1724.087765,1480.411884,-73545.167808,-1036.288319
1724.090307,-1184.329507,-75690.235202,2220.617826
1724.092849,20725.766376,-74158.044206,1776.494261
1724.095397,-14359.995275,-75230.577904,-9326.594869
1724.097944,1628.453072,-72625.853210,-296.082377
1724.100492,6957.935855,-74924.139704,12583.501014
1724.103039,-8882.471304,-76303.111601,-6957.935855
1724.105587,12287.418637,-74004.825107,-7105.977043
1724.108134,5773.606348,-73391.948708,1776.494261
1724.110682,1628.453072,-74617.701505,-8734.430116
1724.113229,24130.713709,-73391.948708,148.041188
1724.115777,-5625.565159,-74311.263306,-7254.018232
1724.118324,3849.070898,-73851.606007,-12435.459826
1724.120872,11103.089130,-73851.606007,-592.164754
1724.123419,888.247130,-74770.920605,2960.823768
1724.125967,-1332.370696,-72932.291410,3552.988522
1724.128514,1332.370696,-75690.235202,5625.565159
1724.131062,1036.288319,-74311.263306,-4737.318029
1724.133609,6513.812290,-74770.920605,-14063.912898
1724.136157,12879.583391,-74464.482406,-12583.501014
1724.138704,-5625.565159,-73238.729609,-5625.565159
1724.141252,-2368.659014,-72319.415011,6069.688724
1724.143800,4589.276840,-72472.634111,9918.759623
1724.146347,-148.041188,-74924.139704,8290.306550
1724.148895,-7402.059420,-76456.330700,-3701.029710
1724.151442,6217.729913,-73851.606007,4293.194464
1724.153990,-11843.295072,-74464.482406,4737.318029
1724.156537,6809.894666,-71706.538613,4293.194464
1724.159085,-6513.812290,-72472.634111,6957.935855
1724.161632,-5625.565159,-74617.701505,3404.947333
1724.164180,-3404.947333,-73698.386908,3404.947333
1724.166727,1184.329507,-76762.768900,5181.441594
1724.169275,-5329.482782,-74617.701505,6365.771101
1724.171822,2812.782580,-73085.510509,5033.400406
1724.174370,-7105.977043,-72319.415011,3108.864956
1724.176917,-12435.459826,-72319.415011,592.164754
1724.179465,8586.388927,-73391.948708,-592.164754
1724.182012,1036.288319,-75690.235202,4441.235652
1724.184560,-8142.265362,-72472.634111,1480.411884
1724.187107,-2368.659014,-73238.729609,-2960.823768
1724.189655,1184.329507,-73085.510509,6365.771101
1724.192202,-19393.395680,-74311.263306,4737.318029
1724.194750,21021.848753,-73391.948708,2368.659014
1724.197302,-5921.647536,-73545.167808,10362.883188
1724.199854,-25167.002028,-76149.892501,4145.153275
1724.202405,7254.018232,-72472.634111,5477.523971
1724.204957,-9622.677246,-74311.263306,11843.295072
1724.207509,5033.400406,-72012.976812,7698.141797
1724.210061,-1776.494261,-74617.701505,15248.242405
1724.212613,-2220.617826,-75383.797003,6957.935855
1724.215164,2960.823768,-74770.920605,148.041188
1724.217716,-2812.782580,-73698.386908,-888.247130
1724.220268,-9770.718434,-72932.291410,-2516.700203
1724.222820,-6217.729913,-72779.072310,11547.212695
1724.225371,-2516.700203,-73545.167808,13619.789333
1724.227923,2220.617826,-75690.235202,11547.212695
1724.230475,148.041188,-77528.864398,7698.141797
1724.233027,-9474.636058,-75537.016103,5181.441594
1724.235579,1184.329507,-73391.948708,4589.276840
1724.238130,10807.006753,-73851.606007,1480.411884
1724.240682,7698.141797,-74004.825107,-18357.107362
1724.243234,-9622.677246,-72319.415011,1480.411884
1724.245786,13323.706956,-74004.825107,740.205942
1724.248338,-1628.453072,-73085.510509,4293.194464
1724.250889,740.205942,-76303.111601,3997.112087
1724.253441,12139.377449,-75077.358804,-4737.318029
1724.255993,-2812.782580,-74158.044206,-4589.276840
1724.258545,-7105.977043,-75077.358804,-1924.535449
1724.261096,23094.425390,-72472.634111,-4737.318029
1724.263648,-10807.006753,-72779.072310,-6217.729913
1724.266200,15692.365970,-73238.729609,-7550.100608
1724.268752,-296.082377,-75230.577904,-1924.535449
1724.271304,-9030.512492,-74158.044206,-2072.576638
1724.273855,16728.654289,-73851.606007,1776.494261
1724.276407,444.123565,-74770.920605,1924.535449
1724.278959,-21465.972318,-75383.797003,-12435.459826
1724.281511,26203.290347,-73238.729609,-8586.388927
1724.284063,-21317.931130,-75843.454302,4145.153275
1724.286614,38194.626607,-73545.167808,-5921.647536
1724.289166,-19689.478057,-76303.111601,18653.189738
1724.291718,148.041188,-72779.072310,-17912.983796
1724.294270,29904.320057,-71093.662214,-8290.306550
1724.296822,13619.789333,-74617.701505,-6957.935855
1724.299377,-1924.535449,-70327.566716,-21021.848753
1724.301932,10066.800811,-74924.139704,-740.205942
1724.304488,1628.453072,-73545.167808,-3701.029710
1724.307043,-5329.482782,-73391.948708,3997.112087
1724.309599,15100.201217,-74311.263306,-444.123565
1724.312154,4441.235652,-73851.606007,-1628.453072
1724.314710,-5329.482782,-75383.797003,-9178.553681
1724.317265,11843.295072,-74158.044206,-11399.171507
1724.319821,2812.782580,-73851.606007,-6513.812290
1724.322376,-444.123565,-73545.167808,-4885.359217
1724.324932,-1332.370696,-71246.881314,1332.370696
1724.327487,-1628.453072,-73391.948708,-888.247130
1724.330043,-1776.494261,-74617.701505,8586.388927
1724.332598,-16432.571912,-77222.426198,8734.430116
1724.335154,3849.070898,-74004.825107,7550.100608
1724.337709,-5477.523971,-74464.482406,5181.441594
1724.340265,6069.688724,-72472.634111,-3108.864956
1724.342820,-12435.459826,-72779.072310,4885.359217
1724.345376,-5329.482782,-74158.044206,7698.141797
1724.347931,-5033.400406,-73391.948708,16284.530724
1724.350487,-3404.947333,-75690.235202,10214.842000
1724.353042,4293.194464,-74311.263306,4145.153275
1724.355598,-1036.288319,-74770.920605,592.164754
1724.358153,-7698.141797,-72932.291410,1924.535449
1724.360709,-8438.347739,-72779.072310,9178.553681
1724.363264,-1924.535449,-73851.606007,7994.224174
1724.365820,-4589.276840,-75537.016103,1184.329507
1724.368375,-1776.494261,-76303.111601,-6809.894666
1724.370930,3552.988522,-73391.948708,2664.741391
1724.373486,-9622.677246,-74311.263306,1924.535449
1724.376041,-13915.871710,-72779.072310,9474.636058
1724.378597,13767.830521,-71400.100414,-3849.070898
1724.381152,-12287.418637,-75077.358804,6957.935855
1724.383708,-8142.265362,-75230.577904,2220.617826
1724.386263,-3404.947333,-75383.797003,13471.748144
1724.388819,-10362.883188,-73085.510509,12731.542202
1724.391374,-3701.029710,-73545.167808,8142.265362
1724.393930,-4885.359217,-75230.577904,10658.965565
1724.396485,1924.535449,-74464.482406,-1184.329507
1724.399041,-1776.494261,-73698.386908,-6809.894666
1724.401600,-11251.130318,-73391.948708,7698.141797
1724.404158,-3108.864956,-72779.072310,12731.542202
1724.406717,592.164754,-74158.044206,13767.830521
1724.409276,1924.535449,-75537.016103,7846.182985
1724.411835,2072.576638,-76915.987999,-1924.535449
1724.414394,-15248.242405,-75077.358804,6661.853478
1724.416952,1924.535449,-73238.729609,-5477.523971
1724.419511,12287.418637,-73085.510509,-10066.800811
1724.422070,-8438.347739,-72932.291410,-10510.924376
1724.424629,19097.313304,-72779.072310,3701.029710
1724.427188,-0.000000,-73391.948708,3701.029710
1724.429746,592.164754,-75383.797003,-740.205942
1724.432305,12879.583391,-75537.016103,5773.606348
1724.434864,-5921.647536,-76303.111601,-4293.194464
1724.437423,13619.789333,-72166.195912,-3701.029710
1724.439982,296.082377,-76609.549800,-1184.329507
1724.442540,-7254.018232,-72779.072310,-9178.553681
1724.445099,10214.842000,-72166.195912,592.164754
1724.447658,7698.141797,-74464.482406,-2516.700203
1724.450217,5921.647536,-73545.167808,-2516.700203
1724.452776,11547.212695,-73545.167808,296.082377
1724.455334,8438.347739,-74004.825107,1036.288319
1724.457893,-16580.613101,-74617.701505,13175.665768
1724.460452,12139.377449,-74464.482406,-10807.006753
1724.463011,18653.189738,-72932.291410,-2812.782580
1724.465570,-25611.125593,-74464.482406,8142.265362
1724.468128,18949.272115,-74770.920605,-8882.471304
1724.470687,1480.411884,-73851.606007,5625.565159
1724.473246,14952.160028,-74770.920605,-3108.864956
1724.475805,17764.942608,-72166.195912,-10510.924376
1724.478364,-1480.411884,-73391.948708,-10362.883188
1724.480922,16432.571912,-73085.510509,-5477.523971
1724.483481,2220.617826,-74770.920605,-1332.370696
1724.486040,-1480.411884,-74158.044206,2664.741391
1724.488599,11843.295072,-75230.577904,3552.988522
1724.491158,-4885.359217,-75690.235202,2664.741391
1724.493716,11399.171507,-74464.482406,-2664.741391
1724.496275,15544.324782,-75230.577904,-11103.089130
1724.498834,-6069.688724,-74004.825107,-11991.336260
1724.501393,2516.700203,-72932.291410,1184.329507
1724.503954,10214.842000,-71706.538613,-1480.411884
1724.506515,-12583.501014,-74004.825107,10807.006753
1724.509076,8734.430116,-75383.797003,7994.224174
1724.511637,-13619.789333,-77069.207099,18061.024985
1724.514197,3997.112087,-74924.139704,-3849.070898
1724.516758,-5477.523971,-74464.482406,4589.276840
1724.519319,-3404.947333,-74311.263306,3108.864956
1724.521880,-3849.070898,-71553.319513,6217.729913
1724.524441,-2960.823768,-74004.825107,12435.459826
1724.527002,-5773.606348,-74617.701505,10807.006753
1724.529563,-592.164754,-74924.139704,1332.370696
1724.532124,3849.070898,-75537.016103,6957.935855
1724.534685,-8290.306550,-74770.920605,2812.782580
1724.537246,1628.453072,-72625.853210,6809.894666
1724.539807,3849.070898,-71859.757712,9326.594869
1724.542368,7402.059420,-75230.577904,1924.535449
1724.544928,6513.812290,-73238.729609,11399.171507
1724.547489,-11251.130318,-76609.549800,9326.594869
1724.550050,6809.894666,-73238.729609,-6513.812290
1724.552611,-444.123565,-75996.673402,15692.365970
1724.555172,-14804.118840,-75996.673402,8438.347739
1724.557733,3552.988522,-71400.100414,-444.123565
1724.560294,-14804.118840,-75690.235202,11843.295072
1724.562855,-9326.594869,-76303.111601,5773.606348
1724.565416,-3701.029710,-75230.577904,12287.418637
1724.567977,-2072.576638,-75843.454302,15396.283594
1724.570538,3108.864956,-73545.167808,-444.123565
1724.573099,-14656.077652,-74004.825107,1184.329507
1724.575660,15692.365970,-73698.386908,-888.247130
1724.578220,-3256.906145,-72779.072310,5477.523971
1724.580781,-17024.736666,-72625.853210,6957.935855
1724.583342,16580.613101,-74004.825107,9474.636058
1724.585903,-8142.265362,-76456.330700,6809.894666
1724.588464,-4589.276840,-75690.235202,5477.523971
1724.591025,-6069.688724,-73545.167808,9326.594869
1724.593586,-4441.235652,-74770.920605,-7550.100608
1724.596147,17764.942608,-74004.825107,-8290.306550
1724.598708,888.247130,-74617.701505,-3108.864956
1724.601269,1628.453072,-73391.948708,-9178.553681
1724.603830,3701.029710,-73698.386908,5625.565159
1724.606393,-3701.029710,-75077.358804,-1332.370696
1724.608956,7698.141797,-75690.235202,-444.123565
1724.611519,2960.823768,-75843.454302,-888.247130
1724.614082,-4589.276840,-74311.263306,-9918.759623
1724.616645,3404.947333,-72472.634111,-148.041188
1724.619208,12287.418637,-73851.606007,-5921.647536
1724.621771,-2516.700203,-72932.291410,-7550.100608
1724.624334,740.205942,-76303.111601,-2072.576638
1724.626897,-2812.782580,-75996.673402,-2664.741391
1724.629460,-17912.983796,-74311.263306,-1332.370696
1724.632023,18061.024985,-75383.797003,-11103.089130
1724.634586,24130.713709,-71246.881314,-19985.560434
1724.637149,-15544.324782,-74617.701505,-444.123565
1724.639712,21910.095883,-73391.948708,7698.141797
1724.642276,-6513.812290,-75537.016103,7846.182985
1724.644839,6661.853478,-74004.825107,-14359.995275
1724.647402,-13175.665768,-75230.577904,-4737.318029
1724.649965,-7698.141797,-76149.892501,-5181.441594
1724.652528,8734.430116,-72319.415011,444.123565
1724.655091,4145.153275,-74004.825107,-3108.864956
1724.657654,1332.370696,-73851.606007,3404.947333
1724.660217,6513.812290,-75996.673402,444.123565
1724.662780,-2960.823768,-74924.139704,-1184.329507
1724.665343,-1776.494261,-76303.111601,740.205942
1724.667906,11103.089130,-74617.701505,-6217.729913
1724.670469,6069.688724,-74158.044206,-4885.359217
1724.673032,-2220.617826,-73545.167808,-148.041188
1724.675595,-148.041188,-71859.757712,-3849.070898
1724.678158,-3701.029710,-73238.729609,888.247130
1724.680721,3701.029710,-75230.577904,10362.883188
1724.683284,-11843.295072,-76456.330700,11991.336260
1724.685848,6069.688724,-74464.482406,11547.212695
1724.688383,-12583.501014,-74617.701505,4885.359217
1724.690919,1776.494261,-74617.701505,-5773.606348
1724.693455,-9326.594869,-72319.415011,2368.659014
1724.695991,-6809.894666,-74464.482406,11399.171507
1724.698527,-1480.411884,-72166.195912,13027.624579
1724.701063,-3701.029710,-75537.016103,11991.336260
1724.703599,5477.523971,-75230.577904,1332.370696
1724.706134,-7254.018232,-75996.673402,4145.153275
1724.708670,-3701.029710,-74158.044206,7105.977043
1724.711206,-8142.265362,-74311.263306,9770.718434
1724.713742,2960.823768,-72779.072310,8734.430116
1724.716278,-4589.276840,-75383.797003,8438.347739
1724.718814,19541.436869,-71859.757712,-20281.642811
1724.721350,-8142.265362,-74617.701505,20281.642811
1724.723886,-8142.265362,-74924.139704,-8882.471304
1724.726421,18357.107362,-70327.566716,4145.153275
1724.728957,-23094.425390,-75230.577904,25463.084405
1724.731493,19245.354492,-71859.757712,-4293.194464
1724.734029,10214.842000,-73698.386908,15988.448347
1724.736565,-13471.748144,-74158.044206,5033.400406
1724.739101,6957.935855,-72932.291410,10658.965565
1724.741637,-10510.924376,-75383.797003,10362.883188
1724.744172,-3256.906145,-72932.291410,-7698.141797
1724.746708,-6809.894666,-73851.606007,13767.830521
1724.749244,3849.070898,-73851.606007,7846.182985
1724.751780,-4737.318029,-73391.948708,6069.688724
1724.754316,1480.411884,-75077.358804,7550.100608
1724.756852,4441.235652,-74770.920605,-1776.494261
1724.759388,-15544.324782,-73238.729609,10214.842000
1724.761924,3256.906145,-73698.386908,1628.453072
1724.764459,8586.388927,-74158.044206,-12731.542202
1724.766995,-16580.613101,-75077.358804,-11103.089130
1724.769531,19393.395680,-73085.510509,-740.205942
1724.772067,-592.164754,-72779.072310,-740.205942
1724.774603,5181.441594,-73085.510509,-2072.576638
1724.777139,4589.276840,-74924.139704,1924.535449
1724.779675,-1332.370696,-77069.207099,-6069.688724
1724.782210,4589.276840,-73698.386908,1184.329507
1724.784746,8586.388927,-75843.454302,-3997.112087
1724.787282,-1036.288319,-73238.729609,-10955.047942
1724.789825,1480.411884,-72166.195912,-1628.453072
1724.792367,12287.418637,-74770.920605,-4589.276840
1724.794910,-4885.359217,-75077.358804,-2368.659014
1724.797453,-10510.924376,-75690.235202,-0.000000
1724.799995,8882.471304,-74617.701505,-11251.130318
1724.802538,-18209.066173,-76456.330700,26647.413912
1724.805081,-28571.949361,-76915.987999,4885.359217
1724.807623,53294.827824,-71553.319513,-25018.960840
1724.810166,-38638.750172,-74311.263306,21021.848753
1724.812709,17172.777854,-75077.358804,-19837.519246
1724.815251,6809.894666,-75996.673402,5625.565159
1724.817794,8734.430116,-72932.291410,-16728.654289
1724.820336,23686.590144,-70634.004916,-12879.583391
1724.822879,-13767.830521,-74617.701505,-1628.453072
1724.825422,8290.306550,-72166.195912,-11695.253884
1724.827964,2368.659014,-76609.549800,9622.677246
1724.830507,-7550.100608,-75996.673402,-1776.494261
1724.833050,16728.654289,-75843.454302,-7402.059420
1724.835592,3701.029710,-75996.673402,-6513.812290
1724.838135,-5181.441594,-72012.976812,-14508.036463
1724.840677,-1924.535449,-72779.072310,8882.471304
1724.843220,6365.771101,-73391.948708,1924.535449
1724.845763,-10658.965565,-74004.825107,10807.006753
1724.848305,6513.812290,-75230.577904,2516.700203
1724.850848,-7994.224174,-76762.768900,16876.695478
1724.853391,-1480.411884,-74158.044206,-1332.370696
1724.855933,-4145.153275,-73698.386908,10362.883188
1724.858476,-3552.988522,-74617.701505,4293.194464
1724.861019,-5477.523971,-71400.100414,2220.617826
1724.863561,-7402.059420,-73085.510509,10214.842000
1724.866104,-3108.864956,-73545.167808,6513.812290
1724.868646,-1036.288319,-74004.825107,5181.441594
1724.871189,-1184.329507,-76303.111601,5625.565159
1724.873732,4737.318029,-73698.386908,5329.482782
1724.876274,1036.288319,-73698.386908,8586.388927
1724.878817,1628.453072,-71246.881314,-1480.411884
1724.881360,-5477.523971,-75996.673402,7105.977043
1724.883902,10510.924376,-75077.358804,-13175.665768
1724.886445,-5181.441594,-74770.920605,29756.278868
1724.888987,-12879.583391,-75690.235202,-8586.388927
1724.891536,22206.178260,-70480.785816,-5921.647536
1724.894085,-47077.097911,-77988.521696,20873.807564
1724.896633,7402.059420,-70787.224015,-2368.659014
1724.899182,3701.029710,-75537.016103,19985.560434
1724.901730,-8438.347739,-74770.920605,2960.823768
1724.904279,444.123565,-76303.111601,12731.542202
1724.906827,-7105.977043,-76609.549800,7550.100608
1724.909376,-8142.265362,-72012.976812,-5181.441594
1724.911924,-17912.983796,-73391.948708,14656.077652
1724.914473,13619.789333,-71859.757712,4293.194464
1724.917021,2812.782580,-74770.920605,7402.059420
1724.919570,-4737.318029,-77069.207099,6069.688724
1724.922119,-2960.823768,-75843.454302,7105.977043
1724.924667,-10362.883188,-74311.263306,10510.924376
1724.927216,3849.070898,-73545.167808,3701.029710
1724.929764,19837.519246,-74617.701505,-16876.695478
1724.932313,-16432.571912,-72779.072310,-7402.059420
1724.934861,26795.455100,-72779.072310,-6809.894666
1724.937410,1924.535449,-72932.291410,4145.153275
1724.939958,-6957.935855,-74004.825107,-444.123565
1724.942507,17172.777854,-75843.454302,1776.494261
1724.945055,-8290.306550,-76609.549800,444.123565
1724.947604,8882.471304,-75537.016103,-2960.823768
1724.950153,11251.130318,-74770.920605,1924.535449
1724.952701,-11991.336260,-73851.606007,-10510.924376
1724.955250,3108.864956,-72319.415011,-4885.359217
1724.957798,20133.601622,-73391.948708,-2516.700203
1724.960347,148.041188,-73391.948708,-3997.112087
1724.962895,6513.812290,-73545.167808,-3404.947333
1724.965444,-11547.212695,-76609.549800,15840.407159
1724.967992,-5773.606348,-75537.016103,-17024.736666
1724.970541,21910.095883,-74004.825107,11991.336260
1724.973090,-12583.501014,-75383.797003,9622.677246
1724.975638,20429.683999,-74004.825107,-15544.324782
1724.978187,-5477.523971,-77835.302597,740.205942
1724.980735,1628.453072,-73698.386908,-18949.272115
1724.983284,15840.407159,-72472.634111,-2072.576638
1724.985832,6809.894666,-73238.729609,-3997.112087
1724.988381,2516.700203,-72779.072310,-5033.400406
1724.990929,2072.576638,-74924.139704,2960.823768
1724.993483,7402.059420,-75690.235202,-5477.523971
1724.996036,-740.205942,-77069.207099,-5625.565159
1724.998588,15396.283594,-75537.016103,-5329.482782
1725.001141,740.205942,-73391.948708,-4589.276840
1725.003694,-7550.100608,-70940.443115,-1332.370696
1725.006247,7402.059420,-72779.072310,-2220.617826
1725.008800,-9178.553681,-74158.044206,8734.430116
1725.011353,-444.123565,-75230.577904,3997.112087
1725.013906,-1628.453072,-74924.139704,17764.942608
1725.016459,-3404.947333,-74617.701505,3849.070898
1725.019012,6661.853478,-73545.167808,1332.370696
1725.021564,-12139.377449,-74158.044206,296.082377
1725.024117,-2516.700203,-72012.976812,6217.729913
1725.026670,-5921.647536,-73391.948708,9770.718434
1725.029223,-5477.523971,-74158.044206,6069.688724
1725.031776,-0.000000,-74924.139704,10066.800811
1725.034329,148.041188,-75996.673402,2368.659014
1725.036882,-12139.377449,-75383.797003,2220.617826
1725.039435,-13619.789333,-76609.549800,12879.583391
1725.041988,3404.947333,-72932.291410,-888.247130
1725.044540,10214.842000,-75383.797003,3701.029710
1725.047093,-14063.912898,-75230.577904,15692.365970
1725.049646,15988.448347,-74924.139704,-7105.977043
1725.052199,-5625.565159,-75537.016103,18209.066173
1725.054752,-18505.148550,-72625.853210,5625.565159
1725.057305,27387.619854,-70940.443115,4589.276840
1725.059858,-23094.425390,-75077.358804,14063.912898
1725.062411,11251.130318,-72779.072310,3404.947333
1725.064964,-15692.365970,-76915.987999,16136.489536
1725.067516,1184.329507,-74617.701505,-444.123565
1725.070069,1332.370696,-72625.853210,7846.182985
1725.072622,-7402.059420,-72472.634111,9918.759623
1725.075175,-7105.977043,-71400.100414,1036.288319
1725.077728,9326.594869,-74311.263306,6513.812290
1725.080281,-4441.235652,-75230.577904,3256.906145
1725.082834,-7105.977043,-76303.111601,8882.471304
1725.085387,-2220.617826,-73085.510509,9622.677246
1725.087940,-740.205942,-74924.139704,-2220.617826
1725.090492,10510.924376,-76303.111601,-9178.553681
1725.093045,2960.823768,-73545.167808,-592.164754
1725.095602,4145.153275,-74311.263306,-5773.606348
1725.098159,-2664.741391,-73238.729609,-1184.329507
1725.100716,1628.453072,-73851.606007,-1184.329507
1725.103272,3108.864956,-74924.139704,1332.370696
1725.105829,592.164754,-76915.987999,5625.565159
1725.108386,9770.718434,-75537.016103,-4293.194464
1725.110943,148.041188,-75230.577904,1036.288319
1725.113499,148.041188,-73391.948708,-9770.718434
1725.116056,11991.336260,-72166.195912,-1184.329507
1725.118613,10066.800811,-72779.072310,-296.082377
1725.121170,11399.171507,-72166.195912,4441.235652
1725.123726,-14508.036463,-74924.139704,8142.265362
1725.126283,1776.494261,-74617.701505,-9030.512492
1725.128840,16136.489536,-72779.072310,-15100.201217
1725.131396,-1332.370696,-75383.797003,-3552.988522
1725.133953,12583.501014,-74004.825107,4293.194464
1725.136510,-1628.453072,-74924.139704,-2368.659014
1725.139067,-13323.706956,-75077.358804,-10807.006753
1725.141623,2516.700203,-75230.577904,-10214.842000
1725.144180,28571.949361,-72319.415011,-9770.718434
1725.146737,-11251.130318,-73698.386908,-4737.318029
1725.149294,15840.407159,-73238.729609,-2072.576638
1725.151850,-1184.329507,-75383.797003,1628.453072
1725.154407,1036.288319,-74924.139704,-8734.430116
1725.156964,21465.972318,-74924.139704,-7698.141797
1725.159521,-10066.800811,-74464.482406,-13471.748144
1725.162077,-592.164754,-71093.662214,2072.576638
1725.164634,13175.665768,-73238.729609,-444.123565
1725.167191,-13915.871710,-73391.948708,6809.894666
1725.169748,-296.082377,-74924.139704,3701.029710
1725.172304,-8142.265362,-75690.235202,13323.706956
1725.174861,-5773.606348,-74770.920605,-1036.288319
1725.177418,5773.606348,-74770.920605,9326.594869
1725.179975,-6365.771101,-74770.920605,6365.771101
1725.182531,-5773.606348,-72319.415011,3552.988522
1725.185088,-4589.276840,-73238.729609,10362.883188
1725.187645,-7698.141797,-73698.386908,6365.771101
1725.190202,148.041188,-72932.291410,888.247130
1725.192758,3108.864956,-76456.330700,6365.771101
1725.195315,6365.771101,-74004.825107,3997.112087
1725.197875,-11399.171507,-72779.072310,5329.482782
1725.200436,-17912.983796,-72779.072310,8438.347739
1725.202996,-15248.242405,-74158.044206,6513.812290
1725.205556,8734.430116,-74770.920605,-8882.471304
1725.208116,10362.883188,-75383.797003,5329.482782
1725.210677,-27387.619854,-76609.549800,17616.901420
1725.213237,18209.066173,-70787.224015,-888.247130
1725.215797,-29312.155303,-74158.044206,15988.448347
1725.218357,-7846.182985,-74924.139704,444.123565
1725.220918,13619.789333,-74311.263306,5181.441594
1725.223478,-13915.871710,-78141.740796,8882.471304
1725.226038,148.041188,-73391.948708,2960.823768
1725.228598,-17912.983796,-74617.701505,13915.871710
1725.231159,-11547.212695,-72166.195912,1036.288319
1725.233719,740.205942,-72625.853210,13471.748144
1725.236279,11695.253884,-75537.016103,4737.318029
1725.238840,-3108.864956,-75077.358804,-1628.453072
1725.241400,-8734.430116,-74004.825107,14656.077652
1725.243960,-7550.100608,-73698.386908,-4737.318029
1725.246520,15692.365970,-74158.044206,-7254.018232
1725.249081,4885.359217,-75077.358804,-3404.947333
1725.251641,16876.695478,-73238.729609,-11399.171507
1725.254201,-13323.706956,-73085.510509,-3701.029710
1725.256761,12139.377449,-73085.510509,-4145.153275
1725.259322,5773.606348,-73238.729609,3404.947333
1725.261882,-4589.276840,-76456.330700,-444.123565
1725.264442,15100.201217,-73545.167808,-4737.318029
1725.267002,-3997.112087,-75843.454302,-2960.823768
1725.269563,-740.205942,-73391.948708,-7994.224174
1725.272123,8290.306550,-73545.167808,888.247130
1725.274683,13915.871710,-72472.634111,-3108.864956
1725.277244,7254.018232,-74311.263306,888.247130
1725.279804,8586.388927,-74311.263306,-1628.453072
1725.282364,-5477.523971,-74464.482406,5477.523971
1725.284924,16284.530724,-75230.577904,-4737.318029
1725.287485,-592.164754,-75843.454302,9030.512492
1725.290045,6513.812290,-74770.920605,-8438.347739
1725.292605,16580.613101,-73391.948708,-7402.059420
1725.295165,-7846.182985,-75230.577904,-9622.677246
1725.297726,9918.759623,-72932.291410,-12583.501014
1725.300288,6661.853478,-72779.072310,2368.659014
1725.302851,3108.864956,-73391.948708,-2812.782580
1725.305413,6957.935855,-73085.510509,-888.247130
1725.307976,5477.523971,-75690.235202,-4441.235652
1725.310538,3108.864956,-75537.016103,-8734.430116
1725.313100,4737.318029,-75077.358804,-3404.947333
1725.315663,2516.700203,-73545.167808,-2516.700203
1725.318225,1776.494261,-73238.729609,2516.700203
1725.320788,148.041188,-73851.606007,-1628.453072
1725.323350,-3404.947333,-73391.948708,6957.935855
1725.325913,-16876.695478,-76915.987999,9474.636058
1725.328475,148.041188,-73698.386908,15248.242405
1725.331038,-7698.141797,-75230.577904,5625.565159
1725.333600,9918.759623,-73391.948708,-2516.700203
1725.336163,-6365.771101,-73851.606007,5329.482782
1725.338725,-10066.800811,-73545.167808,3256.906145
1725.341287,-6661.853478,-72932.291410,12879.583391
1725.343850,-3256.906145,-74770.920605,14804.118840
1725.346412,-740.205942,-74158.044206,4145.153275
1725.348975,9622.677246,-73851.606007,2072.576638
1725.351537,1332.370696,-72319.415011,1184.329507
1725.354100,-14952.160028,-76609.549800,7698.141797
1725.356662,-11695.253884,-74770.920605,21021.848753
1725.359225,1480.411884,-77222.426198,740.205942
1725.361787,6365.771101,-75690.235202,-5625.565159
1725.364350,-8438.347739,-73391.948708,-1184.329507
1725.366912,-14063.912898,-74004.825107,11843.295072
1725.369474,-21169.889941,-73851.606007,16580.613101
1725.372037,592.164754,-73391.948708,15396.283594
1725.374599,-2220.617826,-75077.358804,10658.965565
1725.377162,1036.288319,-76149.892501,7254.018232
1725.379724,-6365.771101,-75690.235202,3552.988522
1725.382287,-21021.848753,-74004.825107,11843.295072
1725.384849,2220.617826,-73391.948708,11695.253884
1725.387412,-1480.411884,-73085.510509,6217.729913
1725.389974,-3108.864956,-74158.044206,888.247130
1725.392537,-3701.029710,-74617.701505,148.041188
1725.395099,-9326.594869,-74311.263306,9030.512492
1725.397661,-4885.359217,-74464.482406,2368.659014
1725.400224,17912.983796,-75077.358804,-8290.306550
1725.402788,-6365.771101,-74158.044206,-9918.759623
1725.405352,15988.448347,-72625.853210,-5921.647536
1725.407917,9326.594869,-73698.386908,-4589.276840
1725.410481,-3849.070898,-74311.263306,-4441.235652
1725.413045,2368.659014,-73085.510509,-3108.864956
1725.415610,6365.771101,-75077.358804,296.082377
1725.418174,1924.535449,-74770.920605,-3701.029710
1725.420738,3997.112087,-74770.920605,-1036.288319
1725.423303,7994.224174,-74464.482406,-9474.636058
1725.425867,-13767.830521,-75077.358804,-6069.688724
1725.428431,4885.359217,-76456.330700,-1480.411884
1725.430995,14656.077652,-71553.319513,-11251.130318
1725.433560,-17468.860231,-73545.167808,22058.137072
1725.436124,2516.700203,-75843.454302,-14359.995275
1725.438688,33753.390955,-74004.825107,-4589.276840
1725.441253,-42635.862259,-77528.864398,9030.512492
1725.443817,37454.420665,-72625.853210,-14211.954086
1725.446381,-2220.617826,-76149.892501,4441.235652
1725.448945,-6513.812290,-75077.358804,-15100.201217
1725.451510,6513.812290,-73238.729609,-10955.047942
1725.454074,-10214.842000,-74770.920605,-3256.906145
1725.456638,11843.295072,-73238.729609,-2072.576638
1725.459203,1480.411884,-76303.111601,7550.100608
1725.461767,12731.542202,-75077.358804,-10214.842000
1725.464331,3108.864956,-75077.358804,-11103.089130
1725.466895,-9918.759623,-74004.825107,-8142.265362
1725.469460,2072.576638,-72319.415011,-4441.235652
1725.472024,6217.729913,-73545.167808,740.205942
1725.474588,-3256.906145,-71859.757712,7846.182985
1725.477153,-2812.782580,-74924.139704,4441.235652
1725.479717,-10510.924376,-74158.044206,12139.377449
1725.482281,-8438.347739,-74311.263306,-444.123565
1725.484845,5773.606348,-74004.825107,4293.194464
1725.487410,-9326.594869,-75383.797003,7994.224174
1725.489974,-3997.112087,-73238.729609,6957.935855
1725.492538,-3552.988522,-73545.167808,9918.759623
1725.495103,-9622.677246,-74004.825107,9474.636058
1725.497667,-2516.700203,-74464.482406,1480.411884
1725.500231,-1924.535449,-75537.016103,9474.636058
1725.502795,1924.535449,-74617.701505,6217.729913
1725.505361,-10955.047942,-73851.606007,13619.789333
1725.507927,-15840.407159,-74924.139704,-3849.070898
1725.510493,2664.741391,-73391.948708,-2220.617826
1725.513059,2960.823768,-76762.768900,1924.535449
1725.515625,-8882.471304,-74311.263306,10955.047942
1725.518191,-3552.988522,-73545.167808,6365.771101
1725.520757,-11843.295072,-73851.606007,11843.295072
1725.523323,-8586.388927,-72932.291410,5329.482782
1725.525889,-1184.329507,-74158.044206,2812.782580
1725.528454,-8882.471304,-75843.454302,5329.482782
1725.531020,-9622.677246,-74617.701505,8438.347739
1725.533586,-1924.535449,-72779.072310,11251.130318
1725.536152,-7105.977043,-72625.853210,4737.318029
1725.538718,-1924.535449,-72932.291410,-1036.288319
1725.541284,-148.041188,-75077.358804,4441.235652
1725.543850,-2516.700203,-74617.701505,9918.759623
1725.546416,-5625.565159,-74311.263306,3997.112087
1725.548982,12287.418637,-75383.797003,-4441.235652
1725.551548,2368.659014,-74311.263306,-11991.336260
1725.554113,5477.523971,-74004.825107,-592.164754
1725.556679,9622.677246,-74311.263306,-2812.782580
1725.559245,3256.906145,-72472.634111,-5625.565159
1725.561811,-3256.906145,-74158.044206,-3997.112087
1725.564377,12435.459826,-73851.606007,-11399.171507
1725.566943,444.123565,-74158.044206,3552.988522
1725.569509,7994.224174,-74311.263306,-4441.235652
1725.572075,4885.359217,-73698.386908,-0.000000
1725.574641,-8586.388927,-75383.797003,-8882.471304
1725.577206,6513.812290,-75383.797003,-7550.100608
1725.579772,-444.123565,-74770.920605,-7402.059420
1725.582338,10214.842000,-74158.044206,-8142.265362
1725.584904,4145.153275,-72319.415011,10362.883188
1725.587470,-9622.677246,-74924.139704,-8142.265362
1725.590036,22058.137072,-71859.757712,-13619.789333
1725.592602,-8290.306550,-77069.207099,4737.318029
1725.595168,29904.320057,-70634.004916,-14656.077652
1725.597734,-2516.700203,-72472.634111,-6513.812290
1725.600300,-6069.688724,-73851.606007,-17764.942608
1725.602865,6661.853478,-71553.319513,-8586.388927
1725.605431,-1628.453072,-74924.139704,2812.782580
1725.607999,10658.965565,-74004.825107,-1776.494261
1725.610566,10214.842000,-75077.358804,-888.247130
1725.613134,7698.141797,-74770.920605,-10066.800811
1725.615701,-6661.853478,-73085.510509,-5181.441594
1725.618269,-1332.370696,-74464.482406,-2072.576638
1725.620836,2072.576638,-73085.510509,2072.576638
1725.623404,-2368.659014,-75077.358804,9326.594869
1725.625971,-8882.471304,-75077.358804,10066.800811
1725.628538,-148.041188,-74004.825107,10214.842000
1725.631106,-12435.459826,-74464.482406,3404.947333
1725.633673,4589.276840,-74770.920605,2220.617826
1725.636241,-4737.318029,-74924.139704,9474.636058
1725.638808,-3256.906145,-73238.729609,5625.565159
1725.641376,-5625.565159,-73238.729609,9030.512492
1725.643943,-11103.089130,-74158.044206,8882.471304
1725.646511,3849.070898,-74617.701505,2664.741391
1725.649078,-740.205942,-76915.987999,9918.759623
1725.651646,-16876.695478,-74158.044206,3849.070898
1725.654213,-13619.789333,-74158.044206,5033.400406
1725.656781,-7846.182985,-73238.729609,1924.535449
1725.659348,-3552.988522,-75383.797003,-1480.411884
1725.661915,5329.482782,-75843.454302,9474.636058
1725.664483,-740.205942,-73851.606007,7994.224174
1725.667050,3108.864956,-71859.757712,8586.388927
1725.669618,-8586.388927,-73391.948708,10807.006753
1725.672185,-6809.894666,-72932.291410,8142.265362
1725.674753,-3997.112087,-74617.701505,8142.265362
1725.677320,-2516.700203,-74770.920605,5329.482782
1725.679888,-6809.894666,-74004.825107,8142.265362
1725.682455,148.041188,-72625.853210,7402.059420
1725.685023,-1332.370696,-72166.195912,-148.041188
1725.687590,-9474.636058,-73851.606007,2072.576638
1725.690157,-3997.112087,-74617.701505,8438.347739
1725.692725,-1036.288319,-73698.386908,9474.636058
1725.695292,-3404.947333,-75537.016103,1480.411884
1725.697860,19097.313304,-75996.673402,-10066.800811
1725.700427,-4737.318029,-73391.948708,740.205942
1725.702995,5181.441594,-74158.044206,-6957.935855
1725.705562,4737.318029,-73238.729609,444.123565
1725.708130,-8142.265362,-74617.701505,-8586.388927
1725.710698,9030.512492,-73698.386908,-3849.070898
1725.713266,3849.070898,-75690.235202,1628.453072
1725.715834,296.082377,-75077.358804,-6217.729913
1725.718402,-1776.494261,-74311.263306,444.123565
1725.720971,-1924.535449,-75537.016103,-6365.771101
1725.723539,-5921.647536,-75996.673402,-2664.741391
1725.726107,21169.889941,-76149.892501,-296.082377
1725.728675,-1480.411884,-74158.044206,8734.430116
1725.731243,592.164754,-74004.825107,-3108.864956
1725.733812,33901.432144,-73085.510509,14211.954086
1725.736380,-28571.949361,-77222.426198,740.205942
1725.738948,15544.324782,-73545.167808,-18949.272115
1725.741516,11103.089130,-73238.729609,-2812.782580
1725.744084,-0.000000,-73085.510509,-15100.201217
1725.746653,17024.736666,-72012.976812,-1924.535449
1725.749221,5477.523971,-74617.701505,-3849.070898
1725.751789,-444.123565,-72166.195912,-5329.482782
1725.754357,12287.418637,-76762.768900,-5625.565159
1725.756925,11399.171507,-74464.482406,-9474.636058
1725.759494,-2368.659014,-74158.044206,-1184.329507
1725.762062,3849.070898,-73698.386908,4293.194464
1725.764630,4885.359217,-73391.948708,592.164754
1725.767198,-10066.800811,-75230.577904,888.247130
1725.769766,7846.182985,-73085.510509,1776.494261
1725.772335,-16284.530724,-74770.920605,16432.571912
1725.774903,-296.082377,-75690.235202,6365.771101
1725.777471,-1924.535449,-74311.263306,18653.189738
1725.780039,740.205942,-75077.358804,1628.453072
1725.782607,740.205942,-72779.072310,3552.988522
1725.785176,-16432.571912,-74311.263306,6069.688724
1725.787744,-8586.388927,-72779.072310,8142.265362
1725.790312,-5773.606348,-74311.263306,14359.995275
1725.792880,-8142.265362,-76609.549800,10510.924376
1725.795448,5033.400406,-77528.864398,3701.029710
1725.798017,-2812.782580,-76303.111601,12287.418637
1725.800585,-26647.413912,-74158.044206,10066.800811
1725.803153,296.082377,-73851.606007,-2960.823768
1725.805721,9474.636058,-74464.482406,9474.636058
1725.808289,-20429.683999,-77835.302597,7402.059420
1725.810858,9178.553681,-72932.291410,740.205942
1725.813426,-3997.112087,-73545.167808,15396.283594
1725.815995,-16876.695478,-73545.167808,7105.977043
1725.818564,-2516.700203,-73851.606007,14211.954086
1725.821133,-11103.089130,-75230.577904,16728.654289
1725.823702,888.247130,-74004.825107,3701.029710
1725.826271,-9178.553681,-75077.358804,5773.606348
1725.828840,740.205942,-73545.167808,740.205942
1725.831409,-3701.029710,-73238.729609,4441.235652
1725.833978,-5329.482782,-74464.482406,10510.924376
1725.836547,-5773.606348,-73238.729609,7402.059420
1725.839116,4885.359217,-75843.454302,-2368.659014
1725.841684,18209.066173,-76762.768900,-7846.182985
1725.844253,-3552.988522,-74158.044206,-1184.329507
1725.846822,13471.748144,-72932.291410,-9030.512492
1725.849391,-3552.988522,-72319.415011,-2220.617826
1725.851960,-4441.235652,-75077.358804,-7402.059420
1725.854529,17024.736666,-74311.263306,-1184.329507
1725.857098,2072.576638,-74617.701505,-148.041188
1725.859667,11547.212695,-74617.701505,-2812.782580
1725.862236,1184.329507,-74311.263306,-888.247130
1725.864805,-13471.748144,-74770.920605,-4589.276840
1725.867374,8586.388927,-75230.577904,3256.906145
1725.869942,21169.889941,-72932.291410,-9622.677246
1725.872511,-10658.965565,-74770.920605,8882.471304
1725.875080,-444.123565,-73698.386908,296.082377
1725.877649,4293.194464,-72932.291410,-13915.871710
1725.880218,-444.123565,-76456.330700,-2368.659014
1725.882787,1036.288319,-75843.454302,-2664.741391
1725.885356,-2812.782580,-74311.263306,-12435.459826
1725.887925,-13175.665768,-73545.167808,-5181.441594
1725.890494,14211.954086,-74464.482406,-2516.700203
1725.893063,-9030.512492,-74158.044206,-2516.700203
1725.895632,5181.441594,-74617.701505,-5181.441594
1725.898202,17172.777854,-76303.111601,-3701.029710
1725.900772,-4737.318029,-75996.673402,-3701.029710
1725.903342,7105.977043,-73545.167808,3256.906145
1725.905912,-8290.306550,-74158.044206,-1332.370696
1725.908482,-5329.482782,-72779.072310,-6957.935855
1725.911052,6957.935855,-74464.482406,6217.729913
1725.913621,-12139.377449,-75077.358804,1924.535449
1725.916191,-5181.441594,-72472.634111,12287.418637
1725.918761,-2664.741391,-75383.797003,11843.295072
1725.921331,1776.494261,-73698.386908,1184.329507
1725.923901,-4885.359217,-74004.825107,2960.823768
1725.926471,-2220.617826,-74004.825107,1036.288319
1725.929041,-11843.295072,-72932.291410,10807.006753
1725.931610,-3552.988522,-74311.263306,14508.036463
1725.934180,-4441.235652,-73698.386908,5477.523971
1725.936750,-11991.336260,-76456.330700,4293.194464
1725.939320,1332.370696,-72472.634111,-6069.688724
1725.941890,2368.659014,-72319.415011,-6365.771101
1725.944460,-7105.977043,-74004.825107,6513.812290
1725.947030,2960.823768,-75537.016103,4145.153275
1725.949599,-8882.471304,-73391.948708,9622.677246
1725.952169,-740.205942,-74464.482406,3701.029710
1725.954739,9030.512492,-72166.195912,7846.182985
1725.957309,-12731.542202,-72932.291410,7846.182985
1725.959879,2368.659014,-72779.072310,10955.047942
1725.962449,-13915.871710,-75383.797003,16728.654289
1725.965019,1036.288319,-75230.577904,7846.182985
1725.967588,-3701.029710,-73698.386908,6217.729913
1725.970158,-592.164754,-75537.016103,1776.494261
1725.972728,10510.924376,-73391.948708,6365.771101
1725.975298,-20429.683999,-73545.167808,6217.729913
1725.977868,-10362.883188,-71859.757712,7105.977043
1725.980438,11103.089130,-76762.768900,2812.782580
1725.983008,11991.336260,-75996.673402,-13175.665768
1725.985577,-592.164754,-73698.386908,-592.164754
1725.988147,10955.047942,-74004.825107,-7550.100608
1725.990717,-14508.036463,-71706.538613,-444.123565
1725.993287,11991.336260,-73698.386908,-1184.329507
1725.995857,6513.812290,-74004.825107,-8734.430116
1725.998427,-3701.029710,-75690.235202,-3849.070898
1726.000996,18357.107362,-74004.825107,-1036.288319
1726.003566,-5329.482782,-73698.386908,-2072.576638
1726.006135,-2368.659014,-73391.948708,-4737.318029
1726.008705,5033.400406,-75383.797003,-4737.318029
1726.011274,-4145.153275,-74924.139704,-13915.871710
1726.013844,-3108.864956,-75690.235202,11399.171507
1726.016413,20577.725188,-74311.263306,-296.082377
1726.018983,-6365.771101,-75690.235202,10658.965565
1726.021553,-6069.688724,-77069.207099,-4885.359217
1726.024122,23390.507767,-73391.948708,-12731.542202
1726.026692,5773.606348,-72779.072310,-9770.718434
1726.029261,22798.343014,-71859.757712,-12879.583391
1726.031831,-14063.912898,-73851.606007,-3849.070898
1726.034400,11399.171507,-73545.167808,-740.205942
1726.036970,7698.141797,-75077.358804,-7105.977043
1726.039540,5477.523971,-75537.016103,-7105.977043
1726.042109,6661.853478,-74158.044206,-3849.070898
1726.044679,-7846.182985,-72779.072310,-3108.864956
1726.047248,-888.247130,-72012.976812,-7402.059420
1726.049818,-5921.647536,-74311.263306,6957.935855
1726.052387,-1480.411884,-74004.825107,2368.659014
1726.054957,-13767.830521,-75077.358804,15840.407159
1726.057526,7550.100608,-74464.482406,2220.617826
1726.060096,888.247130,-74924.139704,10658.965565
1726.062666,-5181.441594,-74770.920605,2072.576638
1726.065235,-296.082377,-72932.291410,3997.112087
1726.067805,-18209.066173,-73391.948708,12139.377449
1726.070374,2072.576638,-73085.510509,6069.688724
1726.072944,-1924.535449,-74158.044206,5477.523971
1726.075513,5181.441594,-73698.386908,1776.494261
1726.078083,10807.006753,-75690.235202,6217.729913
1726.080653,7698.141797,-75537.016103,5773.606348
1726.083222,-31088.649564,-73238.729609,16580.613101
1726.085792,12879.583391,-74924.139704,-16580.613101
1726.088361,-1628.453072,-71706.538613,11547.212695
1726.090931,-22058.137072,-75230.577904,2368.659014
1726.093500,23686.590144,-72012.976812,7105.977043
1726.096070,-23242.466579,-76609.549800,24722.878463
1726.098639,-7105.977043,-74004.825107,7846.182985
1726.101209,-4589.276840,-75230.577904,22354.219448
1726.103779,-10214.842000,-73698.386908,1924.535449
1726.106349,4293.194464,-73085.510509,3108.864956
1726.108919,-4589.276840,-75383.797003,8290.306550
1726.111489,5921.647536,-74464.482406,148.041188
1726.114059,-18061.024985,-73851.606007,10807.006753
1726.116628,-13027.624579,-73391.948708,-0.000000
1726.119198,19245.354492,-74311.263306,-6661.853478
1726.121768,10955.047942,-77069.207099,-7402.059420
1726.124338,6217.729913,-73238.729609,-1332.370696
1726.126908,3997.112087,-73698.386908,-5921.647536
1726.129478,-4145.153275,-71859.757712,-4885.359217
1726.132047,5033.400406,-73545.167808,-1036.288319
1726.134617,15840.407159,-74924.139704,-5625.565159
1726.137187,1628.453072,-74464.482406,-2960.823768
1726.139757,8438.347739,-75077.358804,-2664.741391
1726.142327,1184.329507,-74158.044206,-1924.535449
1726.144897,-6957.935855,-74311.263306,-1628.453072
1726.147467,9474.636058,-72012.976812,-12139.377449
1726.150036,22502.260637,-74158.044206,-11843.295072
1726.152606,444.123565,-72319.415011,7698.141797
1726.155176,-18357.107362,-76915.987999,9474.636058
1726.157746,18505.148550,-75996.673402,-9918.759623
1726.160316,-3552.988522,-75077.358804,1184.329507
1726.162886,10362.883188,-73698.386908,-18357.107362
1726.165456,2960.823768,-73238.729609,-3552.988522
1726.168025,11251.130318,-73391.948708,-7698.141797
1726.170595,4737.318029,-71706.538613,-3256.906145
1726.173165,2072.576638,-75383.797003,-3701.029710
1726.175735,13471.748144,-76303.111601,-5329.482782
1726.178305,1184.329507,-74924.139704,-3701.029710
1726.180875,-6069.688724,-73545.167808,-1628.453072
1726.183444,1480.411884,-73085.510509,1480.411884
1726.186014,296.082377,-75230.577904,3404.947333
1726.188584,-740.205942,-74311.263306,1924.535449
1726.191154,-20429.683999,-75690.235202,3701.029710
1726.193724,5329.482782,-73085.510509,3108.864956
1726.196294,-7698.141797,-74311.263306,12731.542202
1726.198864,3108.864956,-75077.358804,3997.112087
1726.201433,-1480.411884,-73851.606007,10955.047942
1726.204003,-8290.306550,-73545.167808,444.123565
1726.206572,-17764.942608,-73238.729609,9918.759623
1726.209142,-7105.977043,-74617.701505,14656.077652
1726.211711,20281.642811,-73698.386908,3997.112087
1726.214280,-2812.782580,-75843.454302,10955.047942
1726.216850,-9770.718434,-74004.825107,13619.789333
1726.219419,-5181.441594,-74464.482406,-7994.224174
1726.221988,-444.123565,-73545.167808,2220.617826
1726.224558,3701.029710,-72779.072310,7846.182985
1726.227127,-21465.972318,-74617.701505,7254.018232
1726.229697,888.247130,-75383.797003,8142.265362
1726.232266,-444.123565,-75077.358804,15692.365970
1726.234835,-18061.024985,-75537.016103,12731.542202
1726.237405,-5181.441594,-73545.167808,18949.272115
1726.239974,-1924.535449,-74770.920605,9030.512492
1726.242544,-4293.194464,-72779.072310,5773.606348
1726.245113,-1332.370696,-74311.263306,-0.000000
1726.247682,1776.494261,-73851.606007,-0.000000
1726.250252,-3701.029710,-72166.195912,15248.242405
1726.252821,-7105.977043,-74311.263306,6513.812290
1726.255390,22058.137072,-73391.948708,-11399.171507
1726.257960,1776.494261,-76303.111601,-10510.924376
1726.260529,10214.842000,-74464.482406,-3701.029710
1726.263099,1480.411884,-75077.358804,-296.082377
1726.265668,2812.782580,-71859.757712,-7698.141797
1726.268237,-592.164754,-72472.634111,-2368.659014
1726.270807,9918.759623,-75383.797003,-8734.430116
1726.273376,5181.441594,-74464.482406,-888.247130
1726.275945,6809.894666,-75843.454302,-444.123565
1726.278515,2368.659014,-74464.482406,-2960.823768
1726.281084,-10807.006753,-74158.044206,-5033.400406
1726.283654,-9178.553681,-75690.235202,2516.700203
1726.286223,9178.553681,-74311.263306,-8290.306550
1726.288792,26055.249158,-73851.606007,-8734.430116
1726.291362,-12287.418637,-74770.920605,7550.100608
1726.293931,-444.123565,-77375.645298,-8290.306550
1726.296501,7254.018232,-76762.768900,-4885.359217
1726.299070,1184.329507,-75230.577904,-6957.935855
1726.301639,14211.954086,-71093.662214,-14359.995275
1726.304209,-6217.729913,-73851.606007,-5625.565159
1726.306778,4885.359217,-73851.606007,-12435.459826
1726.309347,10658.965565,-74924.139704,-3849.070898
1726.311916,2072.576638,-75996.673402,-3997.112087
1726.314486,2516.700203,-73698.386908,1480.411884
1726.317055,-1924.535449,-74158.044206,2516.700203
1726.319624,7402.059420,-73238.729609,-11695.253884
1726.322194,-11103.089130,-73545.167808,3997.112087
1726.324763,-3404.947333,-74464.482406,-0.000000
1726.327332,-740.205942,-74158.044206,14804.118840
1726.329901,-10214.842000,-74924.139704,12879.583391
1726.332471,12139.377449,-73545.167808,5625.565159
1726.335040,-2664.741391,-75230.577904,7994.224174
1726.337609,-4145.153275,-73238.729609,2220.617826
1726.340178,-14359.995275,-73085.510509,16580.613101
1726.342748,2812.782580,-74158.044206,7402.059420
1726.345317,1628.453072,-72779.072310,8142.265362
1726.347886,2960.823768,-76456.330700,9918.759623
1726.350455,2516.700203,-74464.482406,8586.388927
1726.353025,-8882.471304,-74617.701505,-2812.782580
1726.355594,1184.329507,-74158.044206,2368.659014
1726.358163,1036.288319,-73545.167808,11843.295072
1726.360733,-14804.118840,-74770.920605,6513.812290
1726.363302,-5625.565159,-75537.016103,5329.482782
1726.365871,444.123565,-73238.729609,10066.800811
1726.368440,-16136.489536,-74004.825107,9622.677246
1726.371010,-5625.565159,-73391.948708,18061.024985
1726.373579,-4145.153275,-74464.482406,12879.583391
1726.376148,-592.164754,-74004.825107,7105.977043
1726.378717,-4441.235652,-74004.825107,-1332.370696
1726.381287,-6957.935855,-74158.044206,-1184.329507
1726.383856,-2220.617826,-72319.415011,13323.706956
1726.386425,-7402.059420,-74924.139704,6809.894666
1726.388995,18801.230927,-74924.139704,-10510.924376
1726.391564,888.247130,-76303.111601,-9770.718434
1726.394133,5921.647536,-74004.825107,-2664.741391
1726.396702,3404.947333,-73545.167808,-2960.823768
1726.399272,-888.247130,-72932.291410,-6661.853478
1726.401841,-2072.576638,-73545.167808,-6957.935855
1726.404410,14211.954086,-74004.825107,-11399.171507
1726.406979,3404.947333,-74311.263306,-2368.659014
1726.409549,-2516.700203,-75843.454302,-444.123565
1726.412118,17764.942608,-71859.757712,-2368.659014
1726.414687,12879.583391,-73851.606007,-3256.906145
1726.417257,4293.194464,-72319.415011,1480.411884
1726.419826,3997.112087,-74770.920605,148.041188
1726.422395,-592.164754,-74004.825107,-8290.306550
1726.424964,16432.571912,-74158.044206,-3849.070898
1726.427534,-14063.912898,-76149.892501,-1776.494261
1726.430103,6365.771101,-73698.386908,-12435.459826
1726.432672,-5773.606348,-75843.454302,-2072.576638
1726.435242,14804.118840,-74311.263306,-15396.283594
1726.437811,-5773.606348,-74158.044206,-5625.565159
1726.440380,-2812.782580,-74924.139704,-7105.977043
1726.442950,19393.395680,-73238.729609,-11103.089130
1726.445519,-9622.677246,-75230.577904,1924.535449
1726.448088,8290.306550,-73851.606007,1924.535449
1726.450657,3552.988522,-72472.634111,-5921.647536
1726.453227,-8882.471304,-73851.606007,-1924.535449
1726.455796,9474.636058,-74158.044206,3552.988522
1726.458365,-23686.590144,-75383.797003,12139.377449
1726.460935,592.164754,-74004.825107,7105.977043
1726.463504,3404.947333,-73851.606007,12879.583391
1726.466073,-2664.741391,-75996.673402,2960.823768
1726.468642,1184.329507,-72166.195912,1924.535449
1726.471212,-14211.954086,-74311.263306,7698.141797
1726.473781,-4293.194464,-72932.291410,9622.677246
1726.476350,-10658.965565,-74770.920605,11399.171507
1726.478920,-6365.771101,-74004.825107,3256.906145
1726.481489,-7550.100608,-74311.263306,3108.864956
1726.484058,-2072.576638,-74311.263306,-2664.741391
1726.486628,-2664.741391,-75230.577904,4589.276840
1726.489197,-5477.523971,-74464.482406,19689.478057
1726.491766,1628.453072,-73085.510509,4589.276840
1726.494335,2072.576638,-73698.386908,4293.194464
1726.496905,-6513.812290,-75230.577904,7550.100608
1726.499474,-2664.741391,-74158.044206,5773.606348
1726.502043,-9474.636058,-72779.072310,18653.189738
1726.504613,888.247130,-74311.263306,14063.912898
1726.507182,-740.205942,-74004.825107,8882.471304
1726.509751,-6513.812290,-74004.825107,-3701.029710
1726.512291,-4293.194464,-74158.044206,296.082377
1726.514832,-1036.288319,-72319.415011,13915.871710
1726.517372,-3849.070898,-74004.825107,4589.276840
1726.519912,18209.066173,-75230.577904,-5181.441594
1726.522452,2516.700203,-76609.549800,-9326.594869
1726.524992,3404.947333,-73851.606007,-4441.235652
1726.527532,-4145.153275,-73545.167808,-2220.617826
1726.530072,7550.100608,-72625.853210,-5033.400406
1726.532613,-4441.235652,-73238.729609,-5625.565159
1726.535153,10362.883188,-74770.920605,-8734.430116
1726.537693,9770.718434,-74158.044206,-4589.276840
1726.540233,-10066.800811,-75996.673402,-1480.411884
1726.542773,1628.453072,-73698.386908,-1924.535449
1726.545313,-6217.729913,-74464.482406,-4589.276840
1726.547853,6661.853478,-74464.482406,-10362.883188
1726.550394,-10510.924376,-74924.139704,8438.347739
1726.552934,3256.906145,-73545.167808,-7698.141797
1726.555474,17468.860231,-72932.291410,-9030.512492
1726.558014,1924.535449,-74924.139704,-4441.235652
1726.560554,18061.024985,-73851.606007,-18653.189738
1726.563094,1480.411884,-74004.825107,2220.617826
1726.565634,9770.718434,-73698.386908,-6513.812290
1726.568175,7254.018232,-72932.291410,-4589.276840
1726.570715,-1184.329507,-76915.987999,-8290.306550
1726.573255,14952.160028,-75230.577904,-9178.553681
1726.575795,-7105.977043,-74617.701505,2664.741391
1726.578335,2072.576638,-74004.825107,-592.164754
1726.580875,9326.594869,-72779.072310,2220.617826
1726.583416,-7550.100608,-74004.825107,6365.771101
1726.585956,-4145.153275,-73238.729609,-2516.700203
1726.588496,-10066.800811,-74158.044206,12731.542202
1726.591036,-7846.182985,-74770.920605,6365.771101
1726.593576,9918.759623,-74770.920605,3849.070898
1726.596116,-7105.977043,-74770.920605,12287.418637
1726.598656,-1480.411884,-73698.386908,8438.347739
1726.601197,-15396.283594,-73545.167808,9326.594869
1726.603737,-6069.688724,-73698.386908,1184.329507
1726.606277,9474.636058,-73391.948708,10658.965565
1726.608817,2072.576638,-76456.330700,6809.894666
1726.611357,13027.624579,-73851.606007,5477.523971
1726.613903,-10362.883188,-75077.358804,7846.182985
1726.616448,-14508.036463,-71859.757712,-3552.988522
1726.618994,3997.112087,-72625.853210,1924.535449
1726.621539,-21021.848753,-74617.701505,12583.501014
1726.624085,-6661.853478,-75230.577904,9030.512492
1726.626630,-1480.411884,-75537.016103,22206.178260
1726.629176,-8586.388927,-74770.920605,15544.324782
1726.631721,-592.164754,-74311.263306,9474.636058
1726.634267,-11103.089130,-74464.482406,7402.059420
1726.636812,6957.935855,-74158.044206,2072.576638
1726.639358,-3849.070898,-74311.263306,1480.411884
1726.641903,-19541.436869,-72779.072310,5329.482782
1726.644449,-4441.235652,-72932.291410,5773.606348
1726.646994,15840.407159,-74464.482406,1628.453072
1726.649540,-5773.606348,-76149.892501,-7698.141797
1726.652085,14063.912898,-74770.920605,-1628.453072
1726.654631,-6069.688724,-74004.825107,-5477.523971
1726.657176,-3552.988522,-73238.729609,-5773.606348
1726.659722,10066.800811,-74004.825107,592.164754
1726.662267,7994.224174,-74004.825107,-6661.853478
1726.664813,4737.318029,-73085.510509,-4737.318029
1726.667358,17764.942608,-75690.235202,-2960.823768
1726.669904,-7254.018232,-75230.577904,148.041188
1726.672449,-8142.265362,-72932.291410,-5181.441594
1726.674995,34049.473332,-73851.606007,-9918.759623
1726.677540,-1628.453072,-73085.510509,9770.718434
1726.680086,-2664.741391,-72779.072310,-9178.553681
1726.682631,16728.654289,-74311.263306,-2516.700203
1726.685177,-31236.690752,-77375.645298,444.123565
1726.687722,9326.594869,-75383.797003,-13915.871710
1726.690268,12583.501014,-73698.386908,-2220.617826
1726.692813,-9326.594869,-73698.386908,-10214.842000
1726.695359,16876.695478,-72625.853210,-11103.089130
1726.697904,-444.123565,-76149.892501,-1332.370696
1726.700450,7105.977043,-74464.482406,-7698.141797
1726.702995,-1332.370696,-74924.139704,5625.565159
1726.705541,2960.823768,-75383.797003,4145.153275
1726.708086,4145.153275,-73391.948708,-6069.688724
1726.710632,-12287.418637,-74004.825107,8142.265362
1726.713177,-11547.212695,-75077.358804,5625.565159
1726.715727,-5625.565159,-73545.167808,11103.089130
1726.718278,-5181.441594,-75537.016103,8438.347739
1726.720828,14211.954086,-74158.044206,592.164754
1726.723378,-11695.253884,-75077.358804,7402.059420
1726.725928,-15396.283594,-74158.044206,2664.741391
1726.728479,-9030.512492,-72472.634111,14804.118840
1726.731029,-5773.606348,-74924.139704,9918.759623
1726.733579,3849.070898,-72625.853210,4441.235652
1726.736129,-13323.706956,-76762.768900,8586.388927
1726.738680,1480.411884,-72932.291410,-20429.683999
1726.741230,11843.295072,-72932.291410,12583.501014
1726.743780,-30052.361245,-78907.836294,44412.356520
1726.746330,-13323.706956,-74004.825107,-2960.823768
1726.748881,15248.242405,-75537.016103,14804.118840
1726.751431,-26055.249158,-75996.673402,9474.636058
1726.753981,1628.453072,-73545.167808,9622.677246
1726.756531,-16728.654289,-76609.549800,23538.548956
1726.759082,3701.029710,-72779.072310,8882.471304
1726.761632,-444.123565,-74924.139704,12879.583391
1726.764182,592.164754,-73698.386908,592.164754
1726.766732,-10362.883188,-72472.634111,1332.370696
1726.769283,-8142.265362,-74158.044206,11251.130318
1726.771833,11103.089130,-74004.825107,4589.276840
1726.774383,12731.542202,-76456.330700,-4441.235652
1726.776933,2812.782580,-74004.825107,-4885.359217
1726.779484,9474.636058,-73851.606007,-6513.812290
1726.782034,-5921.647536,-73851.606007,-1332.370696
1726.784584,8586.388927,-73238.729609,-2220.617826
1726.787134,3256.906145,-75077.358804,-740.205942
1726.789685,9030.512492,-74158.044206,-10510.924376
1726.792235,4589.276840,-74770.920605,-1184.329507
1726.794785,8586.388927,-74617.701505,-2072.576638
1726.797335,1924.535449,-73698.386908,-444.123565
1726.799886,17320.819043,-74770.920605,-7994.224174
1726.802436,5033.400406,-73545.167808,5921.647536
1726.804986,1628.453072,-72166.195912,-8438.347739
1726.807536,19985.560434,-73851.606007,-3404.947333
1726.810087,-11251.130318,-76762.768900,888.247130
1726.812637,2220.617826,-74311.263306,-13767.830521
1726.815187,-11547.212695,-74617.701505,-7105.977043
1726.817712,16580.613101,-73238.729609,-7550.100608
1726.820237,17616.901420,-73698.386908,-4737.318029
1726.822763,3849.070898,-75230.577904,-7402.059420
1726.825288,8438.347739,-74311.263306,-4885.359217
1726.827813,-4885.359217,-76149.892501,4589.276840
1726.830338,592.164754,-74770.920605,4441.235652
1726.832863,13175.665768,-73085.510509,3552.988522
1726.835388,-11843.295072,-74617.701505,5477.523971
1726.837914,-15100.201217,-74617.701505,8290.306550
1726.840439,1332.370696,-73391.948708,3849.070898
1726.842964,-13619.789333,-74924.139704,8586.388927
1726.845489,12287.418637,-75077.358804,4737.318029
1726.848014,-0.000000,-74004.825107,15396.283594
1726.850539,-11103.089130,-74770.920605,5181.441594
1726.853065,-11103.089130,-73545.167808,7698.141797
1726.855590,-20429.683999,-75996.673402,9474.636058
1726.858115,7254.018232,-74617.701505,3552.988522
1726.860640,16284.530724,-74770.920605,1036.288319
1726.863165,-11547.212695,-75077.358804,16136.489536
1726.865690,3108.864956,-73085.510509,-3849.070898
1726.868216,-13915.871710,-74617.701505,13471.748144
1726.870741,-21910.095883,-75383.797003,1036.288319
1726.873266,7550.100608,-75077.358804,11399.171507
1726.875791,-11251.130318,-73851.606007,16284.530724
1726.878316,-2960.823768,-74158.044206,14211.954086
1726.880841,-10362.883188,-75383.797003,15396.283594
1726.883367,-6217.729913,-74924.139704,5033.400406
1726.885892,-2220.617826,-74311.263306,5773.606348
1726.888417,8882.471304,-75690.235202,3108.864956
1726.890942,-13175.665768,-72472.634111,5625.565159
1726.893467,-10658.965565,-73698.386908,4589.276840
1726.895992,13471.748144,-74770.920605,-8586.388927
1726.898518,5773.606348,-75230.577904,-5477.523971
1726.901043,12139.377449,-75077.358804,1480.411884
1726.903568,-1184.329507,-73391.948708,-4737.318029
1726.906093,-4145.153275,-72779.072310,-6661.853478
1726.908618,1332.370696,-74004.825107,-5329.482782
1726.911143,12139.377449,-74924.139704,-296.082377
1726.913669,-1184.329507,-74158.044206,-2072.576638
1726.916194,12139.377449,-75077.358804,-296.082377
1726.918728,-444.123565,-75077.358804,148.041188
1726.921262,12139.377449,-72932.291410,-5625.565159
1726.923795,-0.000000,-74770.920605,4589.276840
1726.926329,7550.100608,-73391.948708,592.164754
1726.928863,3849.070898,-74770.920605,5033.400406
1726.931397,1628.453072,-75843.454302,-11547.212695
1726.933931,1332.370696,-75383.797003,-6661.853478
1726.936465,10362.883188,-73851.606007,-10066.800811
1726.938999,11399.171507,-72625.853210,-5181.441594
1726.941533,-1480.411884,-74004.825107,-11991.336260
1726.944067,15396.283594,-73085.510509,-8290.306550
1726.946601,-1776.494261,-76303.111601,-4441.235652
1726.949135,2368.659014,-74924.139704,-148.041188
1726.951669,2960.823768,-73545.167808,3997.112087
1726.954203,8142.265362,-74924.139704,1480.411884
1726.956737,-2220.617826,-73238.729609,592.164754
1726.959271,-17320.819043,-74311.263306,2368.659014
1726.961804,-8882.471304,-73085.510509,11399.171507
1726.964338,-5625.565159,-75230.577904,10955.047942
1726.966872,8882.471304,-74617.701505,6661.853478
1726.969406,-2220.617826,-73698.386908,12435.459826
1726.971940,-2368.659014,-73698.386908,3256.906145
1726.974474,-22354.219448,-72932.291410,8586.388927
1726.977008,-5329.482782,-74158.044206,10510.924376
1726.979542,10658.965565,-74770.920605,8882.471304
1726.982076,13767.830521,-74158.044206,-5625.565159
1726.984610,6661.853478,-74464.482406,5329.482782
1726.987144,-15248.242405,-74770.920605,12287.418637
1726.989678,-22946.384202,-75383.797003,3997.112087
1726.992212,8290.306550,-73545.167808,4589.276840
1726.994746,-11399.171507,-75077.358804,14063.912898
1726.997280,9770.718434,-73391.948708,7846.182985
1726.999814,-5921.647536,-74158.044206,19097.313304
1727.002347,-4589.276840,-74770.920605,9326.594869
1727.004881,-4441.235652,-73851.606007,12731.542202
1727.007415,7698.141797,-75383.797003,7254.018232
1727.009949,-11843.295072,-72932.291410,-5625.565159
1727.012483,-14063.912898,-72012.976812,6513.812290
1727.015017,-1924.535449,-73851.606007,2220.617826
1727.017551,16728.654289,-74311.263306,-7550.100608
1727.020093,5477.523971,-76149.892501,-3404.947333
1727.022635,8290.306550,-74311.263306,-5329.482782
1727.025176,-7550.100608,-73851.606007,-4737.318029
1727.027718,2664.741391,-72779.072310,-4145.153275
1727.030259,4293.194464,-74004.825107,-592.164754
1727.032801,13175.665768,-75077.358804,-3701.029710
1727.035343,8290.306550,-74770.920605,-7994.224174
1727.037884,1924.535449,-74924.139704,-2368.659014
1727.040426,-18801.230927,-73238.729609,-2368.659014
1727.042967,8290.306550,-74158.044206,-10214.842000
1727.045509,14063.912898,-72779.072310,5329.482782
1727.048051,6069.688724,-76915.987999,5921.647536
1727.050592,592.164754,-73851.606007,-1036.288319
1727.053134,13471.748144,-75690.235202,-8882.471304
1727.055675,17912.983796,-74004.825107,-5773.606348
1727.058217,-8290.306550,-73851.606007,-13175.665768
1727.060759,7698.141797,-72319.415011,-12583.501014
1727.063300,3552.988522,-72472.634111,-8142.265362
1727.065842,16136.489536,-75077.358804,-11547.212695
1727.068383,-592.164754,-73851.606007,1628.453072
1727.070925,4589.276840,-74770.920605,2960.823768
1727.073467,13767.830521,-73545.167808,-1776.494261
1727.076008,-10807.006753,-74158.044206,1332.370696
1727.078550,9918.759623,-72166.195912,-2072.576638
1727.081091,-19245.354492,-73851.606007,15396.283594
1727.083633,-1332.370696,-74464.482406,6069.688724
1727.086175,740.205942,-73545.167808,13027.624579
1727.088716,1036.288319,-76303.111601,5625.565159
1727.091258,5773.606348,-73085.510509,1924.535449
1727.093799,-22058.137072,-74464.482406,10658.965565
1727.096341,-6809.894666,-73851.606007,10510.924376
1727.098883,6513.812290,-74158.044206,12139.377449
1727.101401,10214.842000,-74464.482406,-3108.864956
1727.103920,7402.059420,-74924.139704,-0.000000
1727.106439,-11991.336260,-74617.701505,5033.400406
1727.108958,-6365.771101,-71400.100414,-7698.141797
1727.111477,-18061.024985,-74311.263306,16580.613101
1727.113995,-4885.359217,-74770.920605,6957.935855
1727.116514,5329.482782,-74770.920605,12287.418637
1727.119033,-6809.894666,-74464.482406,10066.800811
1727.121552,-888.247130,-74004.825107,7550.100608
1727.124071,-14952.160028,-73391.948708,8882.471304
1727.126589,2220.617826,-73851.606007,3997.112087
1727.129108,-2220.617826,-74770.920605,444.123565
1727.131627,-23538.548956,-73085.510509,6661.853478
1727.134146,6217.729913,-73698.386908,2960.823768
1727.136665,21317.931130,-75690.235202,-2960.823768
1727.139183,-6365.771101,-75537.016103,-4293.194464
1727.141702,13915.871710,-74770.920605,-1776.494261
1727.144221,-6217.729913,-73698.386908,-1924.535449
1727.146740,-296.082377,-73851.606007,-1036.288319
1727.149258,14211.954086,-74311.263306,-1776.494261
1727.151777,7254.018232,-75077.358804,-4589.276840
1727.154296,9326.594869,-73545.167808,-10510.924376
1727.156815,-888.247130,-72472.634111,-3701.029710
1727.159334,2664.741391,-74770.920605,4293.194464
1727.161852,-444.123565,-73698.386908,15840.407159
1727.164371,17912.983796,-74311.263306,-10066.800811
1727.166890,2516.700203,-72779.072310,7402.059420
1727.169409,6069.688724,-75690.235202,-9622.677246
1727.171928,5329.482782,-73698.386908,296.082377
1727.174446,888.247130,-76456.330700,-4293.194464
1727.176965,10807.006753,-73851.606007,-12435.459826
1727.179484,-7105.977043,-74004.825107,-7994.224174
1727.182003,15396.283594,-73545.167808,-14063.912898
1727.184522,5773.606348,-74770.920605,-2072.576638
1727.187040,-2368.659014,-75077.358804,296.082377
1727.189559,2072.576638,-74464.482406,4441.235652
1727.192078,6661.853478,-74617.701505,-444.123565
1727.194597,-9030.512492,-74004.825107,4589.276840
1727.197115,-1480.411884,-74004.825107,-740.205942
1727.199634,-16876.695478,-74158.044206,14952.160028
1727.202164,-3256.906145,-74158.044206,6661.853478
1727.204694,2664.741391,-74770.920605,11843.295072
1727.207223,-6069.688724,-75077.358804,3849.070898
1727.209753,6513.812290,-72779.072310,1036.288319
1727.212283,-23094.425390,-74158.044206,12583.501014
1727.214812,-26055.249158,-75383.797003,11991.336260
1727.217342,7550.100608,-75230.577904,10658.965565
1727.219872,-6513.812290,-78448.178995,15100.201217
1727.222401,6513.812290,-74311.263306,-12287.418637
1727.224931,-148.041188,-72625.853210,3404.947333
1727.227461,-18061.024985,-71093.662214,5625.565159
1727.229990,7105.977043,-73851.606007,15544.324782
1727.232520,-2072.576638,-76303.111601,15988.448347
1727.235050,-2664.741391,-75077.358804,19393.395680
1727.237579,-592.164754,-74770.920605,14211.954086
1727.240109,2812.782580,-73391.948708,7698.141797
1727.242639,-13767.830521,-73698.386908,6809.894666
1727.245169,1480.411884,-73391.948708,4737.318029
1727.247698,-11843.295072,-72779.072310,1628.453072
1727.250228,-11547.212695,-73698.386908,2960.823768
1727.252758,8438.347739,-74617.701505,-2220.617826
1727.255287,23390.507767,-75843.454302,-12731.542202
1727.257817,-9474.636058,-73698.386908,-444.123565
1727.260347,13767.830521,-74158.044206,-6365.771101
1727.262876,-12583.501014,-73391.948708,-5033.400406
1727.265406,4145.153275,-75230.577904,-3701.029710
1727.267936,21317.931130,-74770.920605,-3404.947333
1727.270465,9030.512492,-74617.701505,-3701.029710
1727.272995,-4145.153275,-75383.797003,-888.247130
1727.275525,9474.636058,-74464.482406,-2220.617826
1727.278054,-24574.837274,-76303.111601,12435.459826
1727.280584,6069.688724,-74617.701505,-1036.288319
1727.283114,21910.095883,-75077.358804,-8438.347739
1727.285643,-13767.830521,-73545.167808,740.205942
1727.288173,-1924.535449,-75690.235202,-3997.112087
1727.290703,1924.535449,-74158.044206,-8882.471304
1727.293233,-11103.089130,-75996.673402,-5329.482782
1727.295762,11991.336260,-72779.072310,-17912.983796
1727.298292,-4589.276840,-73545.167808,-7698.141797
1727.300822,15100.201217,-74617.701505,-10510.924376
1727.303361,1332.370696,-74158.044206,7550.100608
1727.305900,-3552.988522,-74770.920605,2812.782580
1727.308438,13471.748144,-74004.825107,-4589.276840
1727.310977,-6957.935855,-74311.263306,5477.523971
1727.313516,-10362.883188,-74158.044206,-2220.617826
1727.316055,-15248.242405,-72166.195912,15248.242405
1727.318594,2664.741391,-73698.386908,9622.677246
1727.321133,-3256.906145,-74004.825107,10955.047942
1727.323672,5181.441594,-75383.797003,296.082377
1727.326211,6957.935855,-73085.510509,3108.864956
1727.328750,-25167.002028,-73698.386908,9326.594869
1727.331289,-15100.201217,-74158.044206,11843.295072
1727.333828,6661.853478,-75230.577904,13619.789333
1727.336367,12879.583391,-76303.111601,4293.194464
1727.338906,-17764.942608,-76303.111601,4885.359217
1727.341445,14952.160028,-71706.538613,-22650.301825
1727.343984,13915.871710,-69255.033019,25167.002028
1727.346523,-42043.697506,-75996.673402,18949.272115
1727.349062,8734.430116,-72319.415011,4441.235652
1727.351601,-17024.736666,-77222.426198,22502.260637
1727.354140,2812.782580,-75077.358804,1184.329507
1727.356679,-9622.677246,-75077.358804,14063.912898
1727.359218,-3552.988522,-73238.729609,296.082377
1727.361757,2812.782580,-74311.263306,9474.636058
1727.364296,-4737.318029,-74770.920605,14804.118840
1727.366835,-8734.430116,-73545.167808,-3552.988522
1727.369374,15100.201217,-74617.701505,-4293.194464
1727.371913,11103.089130,-75996.673402,-12139.377449
1727.374452,2072.576638,-73085.510509,-296.082377
1727.376991,5033.400406,-73698.386908,-2812.782580
1727.379530,-2072.576638,-72166.195912,-5773.606348
1727.382069,2664.741391,-74770.920605,-2664.741391
1727.384608,11695.253884,-75690.235202,-1036.288319
1727.387147,13323.706956,-74924.139704,-4441.235652
1727.389685,3108.864956,-75383.797003,-1924.535449
1727.392224,-13323.706956,-73238.729609,-2960.823768
1727.394763,3108.864956,-73851.606007,-13175.665768
1727.397302,3997.112087,-74617.701505,10066.800811
1727.399841,8142.265362,-75996.673402,592.164754
1727.402380,13471.748144,-74617.701505,-1332.370696
1727.404898,-4737.318029,-76456.330700,-296.082377
1727.407416,9770.718434,-73391.948708,-17320.819043
1727.409934,-3108.864956,-73238.729609,-6809.894666
1727.412452,16284.530724,-73391.948708,-9622.677246
1727.414970,4293.194464,-73698.386908,-6365.771101
1727.417488,5921.647536,-73851.606007,-9918.759623
1727.420006,1036.288319,-74004.825107,740.205942
1727.422524,888.247130,-75077.358804,4737.318029
1727.425041,-5181.441594,-75230.577904,592.164754
1727.427559,-2664.741391,-74770.920605,9622.677246
1727.430077,-14508.036463,-75843.454302,5329.482782
1727.432595,-6069.688724,-72779.072310,7994.224174
1727.435113,-7402.059420,-73391.948708,7105.977043
1727.437631,7846.182985,-75077.358804,5329.482782
1727.440149,-5921.647536,-74158.044206,9474.636058
1727.442667,-16136.489536,-74004.825107,9326.594869
1727.445185,-740.205942,-72625.853210,12139.377449
1727.447703,-11695.253884,-74464.482406,10510.924376
1727.450221,1036.288319,-76149.892501,2516.700203
1727.452738,-9622.677246,-77069.207099,7846.182985
1727.455256,-15396.283594,-75077.358804,-5033.400406
1727.457774,7402.059420,-70940.443115,-2368.659014
1727.460292,-11843.295072,-72012.976812,13619.789333
1727.462810,-21021.848753,-75383.797003,3552.988522
1727.465328,1776.494261,-75383.797003,19097.313304
1727.467846,-13767.830521,-77988.521696,14952.160028
1727.470364,5329.482782,-73085.510509,7254.018232
1727.472882,-9178.553681,-75230.577904,11843.295072
1727.475400,-740.205942,-74004.825107,-3701.029710
1727.477917,-18653.189738,-72932.291410,8734.430116
1727.480435,2960.823768,-74158.044206,11103.089130
1727.482953,11547.212695,-75077.358804,-444.123565
1727.485471,19985.560434,-75383.797003,-11991.336260
1727.487989,-3256.906145,-73391.948708,-4441.235652
1727.490507,5181.441594,-73545.167808,-7105.977043
1727.493025,-6513.812290,-73085.510509,1480.411884
1727.495543,16728.654289,-74924.139704,-3552.988522
1727.498061,1924.535449,-75383.797003,-6809.894666
1727.500579,15840.407159,-74464.482406,-9770.718434
1727.503097,296.082377,-75690.235202,-2072.576638
1727.505627,-8142.265362,-72932.291410,296.082377
1727.508157,-16580.613101,-74004.825107,-148.041188
1727.510687,34345.555709,-73851.606007,-20281.642811
1727.513218,-16876.695478,-74004.825107,28275.866984
1727.515748,-13175.665768,-76762.768900,2368.659014
1727.518278,32421.020260,-73238.729609,-12583.501014
1727.520809,-24574.837274,-76609.549800,2220.617826
1727.523339,6809.894666,-71400.100414,-27535.661042
1727.525869,-3108.864956,-74617.701505,-148.041188
1727.528399,12435.459826,-73391.948708,-11399.171507
1727.530930,4589.276840,-74770.920605,2368.659014
1727.533460,-1776.494261,-75383.797003,8586.388927
1727.535990,8586.388927,-73545.167808,-444.123565
1727.538521,-8438.347739,-76609.549800,1776.494261
1727.541051,-8142.265362,-74464.482406,4737.318029
1727.543581,-13767.830521,-75690.235202,11991.336260
1727.546111,-3701.029710,-73085.510509,13619.789333
1727.548642,-7105.977043,-74311.263306,8438.347739
1727.551172,10362.883188,-75230.577904,444.123565
1727.553702,-3701.029710,-72779.072310,4885.359217
1727.556233,-17912.983796,-73698.386908,5181.441594
1727.558763,-888.247130,-72932.291410,12435.459826
1727.561293,-7994.224174,-73238.729609,13175.665768
1727.563823,-2960.823768,-74924.139704,-3256.906145
1727.566354,11103.089130,-76456.330700,-4737.318029
1727.568884,-12879.583391,-75077.358804,4441.235652
1727.571414,-15840.407159,-73391.948708,5921.647536
1727.573945,-8882.471304,-72166.195912,18949.272115
1727.576475,-23094.425390,-75843.454302,14952.160028
1727.579005,6957.935855,-76149.892501,10955.047942
1727.581535,-4145.153275,-76609.549800,16432.571912
1727.584066,2072.576638,-73698.386908,3552.988522
1727.586596,-5477.523971,-74311.263306,14359.995275
1727.589126,1184.329507,-75537.016103,6809.894666
1727.591657,-21169.889941,-72472.634111,5921.647536
1727.594187,-3404.947333,-73391.948708,4885.359217
1727.596717,35233.802839,-75077.358804,-10955.047942
1727.599247,-444.123565,-75843.454302,-7994.224174
1727.601778,13915.871710,-73391.948708,-444.123565
1727.604308,-4737.318029,-73391.948708,-2220.617826
1727.606849,-7846.182985,-73238.729609,-1924.535449
1727.609389,13027.624579,-75383.797003,-3404.947333
1727.611930,16284.530724,-76456.330700,-6513.812290
1727.614470,2812.782580,-74770.920605,-5773.606348
1727.617011,11547.212695,-72932.291410,-4441.235652
1727.619551,-2368.659014,-70480.785816,-3849.070898
1727.622092,14063.912898,-72625.853210,-6809.894666
1727.624633,17912.983796,-75077.358804,3256.906145
1727.627173,5477.523971,-72472.634111,-1924.535449
1727.629714,18209.066173,-75230.577904,-7254.018232
1727.632254,14211.954086,-73391.948708,-5477.523971
1727.634795,-1924.535449,-73085.510509,-11547.212695
1727.637335,9918.759623,-71706.538613,-19097.313304
1727.639876,-2812.782580,-73545.167808,-7254.018232
1727.642417,10955.047942,-74311.263306,-7846.182985
1727.644957,-4885.359217,-74770.920605,5921.647536
1727.647498,-1480.411884,-74617.701505,4885.359217
1727.650038,11695.253884,-74158.044206,-888.247130
1727.652579,-6217.729913,-74464.482406,8290.306550
1727.655119,-11547.212695,-74464.482406,-3256.906145
1727.657660,-10807.006753,-72319.415011,11399.171507
1727.660201,-9326.594869,-74617.701505,9622.677246
1727.662741,7105.977043,-72779.072310,8882.471304
1727.665282,-6809.894666,-75537.016103,13619.789333
1727.667822,2664.741391,-74158.044206,3552.988522
1727.670363,-11991.336260,-73391.948708,11547.212695
1727.672903,-10807.006753,-72779.072310,7994.224174
1727.675444,4885.359217,-74770.920605,17764.942608
1727.677985,-3701.029710,-77222.426198,-3552.988522
1727.680525,24278.754898,-74158.044206,1036.288319
1727.683066,-30792.567187,-77528.864398,26351.331535
1727.685606,-16432.571912,-72932.291410,3701.029710
1727.688147,444.123565,-73851.606007,20873.807564
1727.690687,-7105.977043,-73698.386908,8142.265362
1727.693228,7254.018232,-74004.825107,11251.130318
1727.695769,-3997.112087,-76303.111601,17320.819043
1727.698309,2368.659014,-73545.167808,-740.205942
1727.700850,-16728.654289,-74311.263306,10807.006753
1727.703390,7994.224174,-71859.757712,9474.636058
1727.705931,-7550.100608,-73545.167808,-5773.606348
1727.708451,19837.519246,-74004.825107,-8882.471304
1727.710972,10066.800811,-75843.454302,-13915.871710
1727.713492,-296.082377,-74464.482406,740.205942
1727.716012,3404.947333,-73238.729609,296.082377
1727.718532,2516.700203,-73545.167808,-2516.700203
1727.721053,-11843.295072,-75230.577904,-4885.359217
1727.723573,26943.496289,-76609.549800,-5625.565159
1727.726093,4441.235652,-74311.263306,-5033.400406
1727.728614,-3997.112087,-74924.139704,-2664.741391
1727.731134,4885.359217,-72472.634111,2664.741391
1727.733654,-14211.954086,-73238.729609,11103.089130
1727.736175,11103.089130,-73851.606007,-1924.535449
1727.738695,6957.935855,-77835.302597,5033.400406
1727.741215,9030.512492,-75996.673402,-12879.583391
1727.743736,14656.077652,-74158.044206,-9030.512492
1727.746256,-592.164754,-74004.825107,-6957.935855
1727.748776,13915.871710,-72932.291410,-8438.347739
1727.751297,3997.112087,-74770.920605,-6513.812290
1727.753817,5329.482782,-74158.044206,-8734.430116
1727.756337,-0.000000,-74464.482406,296.082377
1727.758857,7402.059420,-74770.920605,-0.000000
1727.761378,-4145.153275,-74770.920605,1036.288319
1727.763898,-2368.659014,-74004.825107,10955.047942
1727.766418,-16432.571912,-74770.920605,6365.771101
1727.768939,-8882.471304,-73391.948708,6809.894666
1727.771459,-2960.823768,-74158.044206,2664.741391
1727.773979,10214.842000,-74311.263306,6513.812290
1727.776500,-5625.565159,-74004.825107,10955.047942
1727.779020,-8290.306550,-73238.729609,11695.253884
1727.781540,-4145.153275,-72472.634111,11695.253884
1727.784061,-24870.919651,-73085.510509,2220.617826
1727.786581,-3108.864956,-75537.016103,-5033.400406
1727.789101,9622.677246,-77528.864398,1776.494261
1727.791621,-5773.606348,-74311.263306,17764.942608
1727.794142,-15692.365970,-72932.291410,8586.388927
1727.796662,-10955.047942,-72932.291410,11251.130318
1727.799182,-21317.931130,-74464.482406,10510.924376
1727.801703,3108.864956,-74617.701505,4589.276840
1727.804223,-7105.977043,-75230.577904,14656.077652
1727.806743,2960.823768,-74311.263306,9326.594869
1727.809276,-8882.471304,-74004.825107,10066.800811
1727.811809,-24574.837274,-74464.482406,1924.535449
1727.814342,3404.947333,-71859.757712,3849.070898
1727.816875,18209.066173,-75230.577904,-2368.659014
1727.819408,15840.407159,-75690.235202,-15544.324782
1727.821940,3552.988522,-74770.920605,-3701.029710
1727.824473,3404.947333,-72625.853210,-6957.935855
1727.827006,-6217.729913,-72012.976812,1036.288319
1727.829539,7402.059420,-73545.167808,-6957.935855
1727.832072,-9622.677246,-75843.454302,-5181.441594
1727.834605,16432.571912,-75230.577904,-8290.306550
1727.837138,19689.478057,-75383.797003,-4293.194464
1727.839670,-6513.812290,-73391.948708,-148.041188
1727.842203,2664.741391,-72319.415011,9918.759623
1727.844736,-6513.812290,-74924.139704,-6661.853478
1727.847269,13471.748144,-74617.701505,1184.329507
1727.849802,-1924.535449,-78448.178995,148.041188
1727.852335,13767.830521,-74158.044206,-15396.283594
1727.854867,3256.906145,-72012.976812,-10214.842000
1727.857400,4737.318029,-74617.701505,-14804.118840
1727.859933,2812.782580,-72166.195912,-6661.853478
1727.862466,9178.553681,-75230.577904,-2664.741391
1727.864999,-444.123565,-73698.386908,-5477.523971
1727.867532,-1332.370696,-74311.263306,-0.000000
1727.870065,-148.041188,-74924.139704,-4737.318029
1727.872597,-3552.988522,-73391.948708,4885.359217
1727.875130,-22058.137072,-75077.358804,8290.306550
1727.877663,-1776.494261,-72779.072310,13915.871710
1727.880196,-7550.100608,-74924.139704,7698.141797
1727.882729,7550.100608,-73391.948708,2960.823768
1727.885262,-3849.070898,-74617.701505,4589.276840
1727.887794,-2072.576638,-73085.510509,8142.265362
1727.890327,-28127.825796,-75077.358804,19393.395680
1727.892860,-7105.977043,-76456.330700,16432.571912
1727.895393,-2960.823768,-77069.207099,14508.036463
1727.897926,592.164754,-77528.864398,-7994.224174
1727.900459,3108.864956,-73238.729609,-5033.400406
1727.902992,-10807.006753,-73085.510509,10807.006753
1727.905524,-19837.519246,-72932.291410,17616.901420
1727.908057,-13175.665768,-73851.606007,16136.489536
1727.910601,-2072.576638,-75996.673402,19837.519246
1727.913144,5033.400406,-74770.920605,7254.018232
1727.915688,148.041188,-74770.920605,6661.853478
1727.918232,-12435.459826,-74924.139704,5033.400406
1727.920775,-16284.530724,-74311.263306,13915.871710
1727.923319,-11251.130318,-72932.291410,888.247130
1727.925862,4145.153275,-74158.044206,2812.782580
1727.928406,32569.061448,-76456.330700,-12879.583391
1727.930950,-14211.954086,-75077.358804,-4145.153275
1727.933493,11843.295072,-72932.291410,-5181.441594
1727.936037,-3997.112087,-71706.538613,-1480.411884
1727.938580,-6661.853478,-73391.948708,-4145.153275
1727.941124,14656.077652,-76915.987999,-444.123565
1727.943668,11103.089130,-75537.016103,-9030.512492
1727.946211,-3552.988522,-76303.111601,-6513.812290
1727.948755,3108.864956,-73391.948708,7402.059420
1727.951298,-10807.006753,-72779.072310,296.082377
1727.953842,15988.448347,-72319.415011,444.123565
1727.956385,3849.070898,-78294.959896,13915.871710
1727.958929,1480.411884,-75230.577904,-17172.777854
1727.961473,3552.988522,-76762.768900,-1924.535449
1727.964016,-1332.370696,-76149.892501,-13175.665768
1727.966560,8438.347739,-71400.100414,-17912.983796
1727.969103,1480.411884,-74770.920605,-2664.741391
1727.971647,8290.306550,-73698.386908,-11695.253884
1727.974191,-4293.194464,-74464.482406,2812.782580
1727.976734,13323.706956,-74464.482406,-1628.453072
1727.979278,-5329.482782,-75383.797003,3997.112087
1727.981821,-4145.153275,-73698.386908,12139.377449
1727.984365,-11103.089130,-74004.825107,13619.789333
1727.986909,-3108.864956,-73238.729609,3108.864956
1727.989452,-4885.359217,-74158.044206,2368.659014
1727.991996,10510.924376,-74617.701505,2516.700203
1727.994539,-7254.018232,-73238.729609,8882.471304
1727.997083,-1332.370696,-73085.510509,9918.759623
1727.999627,-20725.766376,-74770.920605,11399.171507
1728.002170,-32717.102636,-74770.920605,2812.782580
1728.004714,-1924.535449,-75383.797003,-3108.864956
1728.007257,2072.576638,-73851.606007,-7698.141797
1728.009801,-3849.070898,-71859.757712,1480.411884
1728.012353,1184.329507,-71246.881314,16728.654289
1728.014905,-9178.553681,-71859.757712,17320.819043
1728.017457,-5625.565159,-72932.291410,8734.430116
1728.020009,2664.741391,-74311.263306,9918.759623
1728.022561,-1036.288319,-74311.263306,4737.318029
1728.025113,-4441.235652,-73851.606007,8438.347739
1728.027664,-7254.018232,-74924.139704,3701.029710
1728.030216,-22354.219448,-73085.510509,9326.594869
1728.032768,2516.700203,-72472.634111,1776.494261
1728.035320,29164.114115,-75690.235202,-9326.594869
1728.037872,6809.894666,-76149.892501,-11399.171507
1728.040424,13323.706956,-74311.263306,-7698.141797
1728.042976,-9918.759623,-71553.319513,1184.329507
1728.045528,-2368.659014,-73391.948708,-1924.535449
1728.048080,13619.789333,-74924.139704,888.247130
1728.050632,6809.894666,-77835.302597,-9770.718434
1728.053184,5329.482782,-75690.235202,-10955.047942
1728.055736,-888.247130,-74924.139704,-148.041188
1728.058287,-24722.878463,-72166.195912,-0.000000
1728.060839,3701.029710,-72166.195912,-15396.283594
1728.063391,26795.455100,-73698.386908,-4885.359217
1728.065943,-27831.743419,-78601.398095,5921.647536
1728.068495,30792.567187,-75690.235202,-16580.613101
1728.071047,592.164754,-74004.825107,-2812.782580
1728.073599,6661.853478,-73391.948708,-23686.590144
1728.076151,4145.153275,-73545.167808,-7402.059420
1728.078703,-5181.441594,-74924.139704,-3552.988522
1728.081255,11843.295072,-72779.072310,-4589.276840
1728.083807,-3849.070898,-77069.207099,10362.883188
1728.086358,9622.677246,-74158.044206,444.123565
1728.088910,-3997.112087,-74924.139704,15100.201217
1728.091462,-14359.995275,-73391.948708,1036.288319
1728.094014,-14804.118840,-71859.757712,9030.512492
1728.096566,-4589.276840,-75537.016103,8586.388927
1728.099118,11103.089130,-74617.701505,2664.741391
1728.101670,-2072.576638,-74770.920605,13323.706956
1728.104222,-3256.906145,-72625.853210,8142.265362
1728.106774,-17320.819043,-71553.319513,10658.965565
1728.109326,-7254.018232,-75383.797003,10955.047942
1728.111878,5773.606348,-74770.920605,14359.995275
1728.114437,740.205942,-77988.521696,-3849.070898
1728.116996,7550.100608,-72779.072310,2368.659014
1728.119555,-23094.425390,-72319.415011,10510.924376
1728.122114,-15396.283594,-72932.291410,9918.759623
1728.124673,-13767.830521,-75383.797003,20429.683999
1728.127232,8734.430116,-74617.701505,9622.677246
1728.129791,-1332.370696,-75230.577904,15544.324782
1728.132350,3552.988522,-75383.797003,2220.617826
1728.134909,-13619.789333,-72779.072310,-1036.288319
1728.137468,-10214.842000,-72625.853210,8882.471304
1728.140027,4145.153275,-73391.948708,-888.247130
1728.142586,15100.201217,-75537.016103,-18061.024985
1728.145145,13619.789333,-75537.016103,-8438.347739
1728.147704,9326.594869,-74924.139704,-5181.441594
1728.150263,-13175.665768,-72932.291410,3701.029710
1728.152822,10807.006753,-72012.976812,-888.247130
1728.155381,3849.070898,-75996.673402,-4737.318029
1728.157940,888.247130,-76609.549800,-9474.636058
1728.160499,16284.530724,-76762.768900,-2812.782580
1728.163058,-14211.954086,-73851.606007,-6513.812290
1728.165617,5773.606348,-72932.291410,-6957.935855
1728.168176,10362.883188,-72166.195912,13175.665768
1728.170735,-8290.306550,-77069.207099,6513.812290
1728.173294,37010.297100,-75690.235202,-12583.501014
1728.175853,27239.578666,-75230.577904,-1776.494261
1728.178412,-12879.583391,-74158.044206,-19097.313304
1728.180971,18357.107362,-72472.634111,-8734.430116
1728.183530,7254.018232,-74464.482406,-8290.306550
1728.186089,-592.164754,-72319.415011,-10807.006753
1728.188648,5921.647536,-74311.263306,6957.935855
1728.191207,9326.594869,-74464.482406,-6365.771101
1728.193766,-20725.766376,-74158.044206,7402.059420
1728.196325,6513.812290,-73391.948708,8142.265362
1728.198884,-18653.189738,-74311.263306,14952.160028
1728.201443,-9178.553681,-73391.948708,6957.935855
1728.204002,1184.329507,-74464.482406,2516.700203
1728.206561,6365.771101,-76149.892501,4885.359217
1728.209120,-6513.812290,-73851.606007,8290.306550
1728.211679,592.164754,-71859.757712,13323.706956
1728.214238,-17912.983796,-73698.386908,13915.871710
1728.216803,-17172.777854,-76609.549800,10362.883188
1728.219368,-3256.906145,-77069.207099,3701.029710
1728.221933,2220.617826,-77528.864398,-592.164754
1728.224498,-14804.118840,-75537.016103,14656.077652
1728.227063,-8734.430116,-72166.195912,9918.759623
1728.229628,-15988.448347,-73085.510509,15544.324782
1728.232193,-11695.253884,-74617.701505,8586.388927
1728.234758,-148.041188,-74770.920605,9474.636058
1728.237323,-2664.741391,-75383.797003,7846.182985
1728.239888,-1036.288319,-74924.139704,9474.636058
1728.242453,-23538.548956,-74464.482406,7105.977043
1728.245018,-4293.194464,-72166.195912,7846.182985
1728.247584,21021.848753,-74770.920605,-5329.482782
1728.250149,11991.336260,-75996.673402,-17912.983796
1728.252714,740.205942,-75077.358804,-6809.894666
1728.255279,11399.171507,-72932.291410,-5181.441594
1728.257844,-11547.212695,-71093.662214,148.041188
1728.260409,8734.430116,-74158.044206,-1480.411884
1728.262974,-740.205942,-76303.111601,-9474.636058
1728.265539,10807.006753,-75843.454302,-10510.924376
1728.268104,14656.077652,-74004.825107,-9770.718434
1728.270669,-6217.729913,-74004.825107,-5329.482782
1728.273234,-2368.659014,-70634.004916,6809.894666
1728.275799,1776.494261,-76149.892501,296.082377
1728.278364,148.041188,-76456.330700,-6069.688724
1728.280929,12287.418637,-77375.645298,-3108.864956
1728.283494,10362.883188,-74464.482406,-10362.883188
1728.286059,-5181.441594,-73085.510509,-15100.201217
1728.288624,6809.894666,-73085.510509,-12583.501014
1728.291189,-2072.576638,-73851.606007,-5625.565159
1728.293754,1036.288319,-73391.948708,2220.617826
1728.296320,8438.347739,-74924.139704,5477.523971
1728.298889,13027.624579,-75537.016103,2960.823768
1728.301458,-12731.542202,-74004.825107,10658.965565
1728.304028,-12583.501014,-73391.948708,5181.441594
1728.306597,-10214.842000,-72319.415011,6661.853478
1728.309167,-6365.771101,-76303.111601,8290.306550
1728.311736,10658.965565,-75077.358804,7550.100608
1728.314306,1628.453072,-74617.701505,10214.842000
1728.316875,-592.164754,-73391.948708,9030.512492
1728.319445,-18505.148550,-72779.072310,9770.718434
1728.322014,-15396.283594,-74311.263306,10510.924376
1728.324583,592.164754,-76456.330700,11251.130318
1728.327153,-13027.624579,-76303.111601,2664.741391
1728.329722,19245.354492,-70634.004916,-7550.100608
1728.332292,-15988.448347,-72319.415011,22206.178260
1728.334861,-17320.819043,-73545.167808,6365.771101
1728.337431,-9474.636058,-74770.920605,21317.931130
1728.340000,-5329.482782,-77069.207099,10362.883188
1728.342570,7994.224174,-74158.044206,10066.800811
1728.345139,-5921.647536,-74617.701505,10658.965565
1728.347708,-10955.047942,-72012.976812,5329.482782
1728.350278,-22354.219448,-73391.948708,6365.771101
1728.352847,11843.295072,-75077.358804,-2220.617826
1728.355417,30496.484810,-75537.016103,-14804.118840
1728.357986,-5921.647536,-75843.454302,-4737.318029
1728.360556,15396.283594,-72779.072310,-10510.924376
1728.363125,-3701.029710,-71706.538613,-0.000000
1728.365695,-6957.935855,-74770.920605,-1776.494261
1728.368264,14063.912898,-77222.426198,-4885.359217
1728.370833,10658.965565,-75230.577904,-6957.935855
1728.373403,22946.384202,-74924.139704,-8438.347739
1728.375972,12139.377449,-70634.004916,-740.205942
1728.378542,-15100.201217,-72472.634111,12879.583391
1728.381111,2960.823768,-71246.881314,-9918.759623
1728.383681,30792.567187,-74464.482406,-13471.748144
1728.386250,-3849.070898,-76609.549800,-6957.935855
1728.388820,-1776.494261,-74617.701505,-17616.901420
1728.391389,5921.647536,-74770.920605,-3849.070898
1728.393958,3997.112087,-74617.701505,-8882.471304
1728.396528,4145.153275,-73391.948708,-4885.359217
1728.399097,-4441.235652,-75690.235202,740.205942
1728.401671,17468.860231,-75230.577904,-4293.194464
1728.404244,-9918.759623,-74770.920605,3701.029710
1728.406817,-1036.288319,-73545.167808,4589.276840
1728.409390,-25463.084405,-74464.482406,21910.095883
1728.411963,-296.082377,-72779.072310,13471.748144
1728.414536,-3849.070898,-75077.358804,6513.812290
1728.417109,10066.800811,-75690.235202,148.041188
1728.419682,-3997.112087,-74311.263306,3256.906145
1728.422256,-20873.807564,-72932.291410,10510.924376
1728.424829,-18061.024985,-74004.825107,17616.901420
1728.427402,11251.130318,-74311.263306,6513.812290
1728.429975,-12287.418637,-77528.864398,5477.523971
1728.432548,20429.683999,-75077.358804,-14508.036463
1728.435121,-5033.400406,-71706.538613,14508.036463
1728.437694,-9622.677246,-71246.881314,8142.265362
1728.440268,-8438.347739,-72319.415011,22798.343014
1728.442841,-5033.400406,-76762.768900,13323.706956
1728.445414,8290.306550,-74617.701505,7402.059420
1728.447987,-1628.453072,-74770.920605,4737.318029
1728.450560,-6661.853478,-72932.291410,296.082377
1728.453133,-1036.288319,-72319.415011,12435.459826
1728.455706,-13915.871710,-72472.634111,296.082377
1728.458280,13027.624579,-73698.386908,-17616.901420
1728.460853,3701.029710,-76149.892501,-12879.583391
1728.463426,13915.871710,-74617.701505,-7550.100608
1728.465999,-5329.482782,-72779.072310,2960.823768
1728.468572,6661.853478,-71246.881314,-3552.988522
1728.471145,-2812.782580,-75230.577904,-592.164754
1728.473718,11843.295072,-77222.426198,-10510.924376
1728.476292,20577.725188,-75843.454302,-4441.235652
1728.478865,10214.842000,-72779.072310,-9030.512492
1728.481438,-1332.370696,-72166.195912,12139.377449
1728.484011,2368.659014,-71246.881314,5625.565159
1728.486584,-4145.153275,-77069.207099,-4737.318029
1728.489157,13767.830521,-76762.768900,-11695.253884
1728.491730,18061.024985,-75383.797003,-7105.977043
1728.494304,11547.212695,-73545.167808,-12731.542202
1728.496877,444.123565,-72166.195912,-6957.935855
1728.499450,-888.247130,-73085.510509,-2368.659014
1728.502023,6957.935855,-74770.920605,2516.700203
1728.504599,1332.370696,-75690.235202,148.041188
1728.507175,15396.283594,-75537.016103,-1628.453072
1728.509752,-8142.265362,-75230.577904,9178.553681
1728.512328,-16876.695478,-73545.167808,14656.077652
1728.514904,-8734.430116,-72472.634111,19393.395680
1728.517480,-6809.894666,-75690.235202,12731.542202
1728.520057,1924.535449,-76149.892501,3552.988522
1728.522633,6513.812290,-75537.016103,2812.782580
1728.525209,-11399.171507,-73545.167808,7698.141797
1728.527785,-14211.954086,-73545.167808,18653.189738
1728.530361,-16284.530724,-73545.167808,8586.388927
1728.532938,-8734.430116,-76762.768900,-592.164754
1728.535514,-10066.800811,-76149.892501,-3849.070898
1728.538090,6217.729913,-73851.606007,1332.370696
1728.540666,-26943.496289,-70480.785816,13619.789333
1728.543243,-18653.189738,-73085.510509,20873.807564
1728.545819,-1776.494261,-75383.797003,16432.571912
1728.548395,-7254.018232,-76915.987999,10658.965565
1728.550971,13471.748144,-74004.825107,-1036.288319
1728.553548,-11547.212695,-75230.577904,6957.935855
1728.556124,-6217.729913,-72319.415011,10362.883188
1728.558700,-10214.842000,-72932.291410,5625.565159
1728.561276,10658.965565,-74770.920605,-16136.489536
1728.563852,25907.207970,-75690.235202,-11843.295072
1728.566429,6365.771101,-75690.235202,-7105.977043
1728.569005,1628.453072,-72319.415011,-3552.988522
1728.571581,4441.235652,-71859.757712,1332.370696
1728.574157,1776.494261,-75077.358804,-148.041188
1728.576734,6069.688724,-76915.987999,-11547.212695
1728.579310,17616.901420,-74617.701505,-6661.853478
1728.581886,9474.636058,-73238.729609,1036.288319
1728.584462,-4441.235652,-71859.757712,-2664.741391
1728.587039,13767.830521,-71553.319513,-1036.288319
1728.589615,-15100.201217,-75383.797003,6365.771101
1728.592191,25463.084405,-77835.302597,-8438.347739
1728.594767,21465.972318,-75230.577904,-6661.853478
1728.597343,-3849.070898,-73085.510509,-14508.036463
1728.599920,3552.988522,-71706.538613,-18357.107362
1728.602496,-740.205942,-73545.167808,148.041188
1728.605072,4441.235652,-74770.920605,-1480.411884
1728.607650,-2072.576638,-74464.482406,6365.771101
1728.610228,17616.901420,-76303.111601,-3552.988522
1728.612806,-2960.823768,-74464.482406,14804.118840
1728.615384,-18653.189738,-73698.386908,7254.018232
1728.617962,-14952.160028,-70940.443115,10362.883188
1728.620540,-5921.647536,-75230.577904,10510.924376
1728.623117,6069.688724,-75230.577904,6217.729913
1728.625695,-2368.659014,-76149.892501,3552.988522
1728.628273,1776.494261,-73238.729609,3552.988522
1728.630851,-16432.571912,-72932.291410,14211.954086
1728.633429,-8734.430116,-73698.386908,9178.553681
1728.636007,7254.018232,-75843.454302,4589.276840
1728.638585,13471.748144,-77682.083497,-0.000000
1728.641163,3552.988522,-71553.319513,6661.853478
1728.643741,-10214.842000,-70021.128517,7994.224174
1728.646319,-17912.983796,-70480.785816,17764.942608
1728.648896,-6513.812290,-76303.111601,14508.036463
1728.651474,6217.729913,-75383.797003,8882.471304
1728.654052,-148.041188,-75230.577904,9030.512492
1728.656630,-5329.482782,-72779.072310,2664.741391
1728.659208,-13175.665768,-71859.757712,8734.430116
1728.661786,4737.318029,-72625.853210,1184.329507
1728.664364,17024.736666,-74311.263306,-19245.354492
1728.666942,8142.265362,-75383.797003,-15248.242405
1728.669520,17320.819043,-74464.482406,-10214.842000
1728.672097,-10362.883188,-72012.976812,740.205942
1728.674675,1036.288319,-71859.757712,-296.082377
1728.677253,8290.306550,-74770.920605,1036.288319
1728.679831,9770.718434,-76915.987999,-14063.912898
1728.682409,12879.583391,-74158.044206,-11251.130318
1728.684987,-3404.947333,-73391.948708,-12139.377449
1728.687565,22206.178260,-70480.785816,-10214.842000
1728.690143,16876.695478,-72625.853210,17616.901420
1728.692721,-17764.942608,-77222.426198,444.123565
1728.695299,25611.125593,-75996.673402,-18653.189738
1728.697876,6365.771101,-77682.083497,-7550.100608
1728.700454,4293.194464,-71400.100414,-27387.619854
1728.703032,-2220.617826,-72012.976812,-1332.370696
1728.705610,22206.178260,-71246.881314,-5773.606348
1728.708188,-15692.365970,-75077.358804,3552.988522
1728.710768,13323.706956,-75537.016103,-1480.411884
1728.713347,-1924.535449,-74924.139704,4145.153275
1728.715927,-10066.800811,-75537.016103,7550.100608
1728.718506,-23094.425390,-73391.948708,25018.960840
1728.721086,7994.224174,-72625.853210,13027.624579
1728.723665,-12731.542202,-75383.797003,9326.594869
1728.726245,16284.530724,-75996.673402,-1184.329507
1728.728824,2368.659014,-73085.510509,4293.194464
1728.731404,-15692.365970,-72625.853210,12287.418637
1728.733984,-740.205942,-70787.224015,15100.201217
1728.736563,-8438.347739,-73085.510509,14063.912898
1728.739143,-3108.864956,-79061.055394,-5477.523971
1728.741722,17616.901420,-75996.673402,1628.453072
1728.744302,-35085.761651,-74311.263306,10066.800811
1728.746881,-15100.201217,-70327.566716,17468.860231
1728.749461,-5477.523971,-73238.729609,23834.631332
1728.752041,-7402.059420,-77222.426198,11251.130318
1728.754620,6513.812290,-75996.673402,5329.482782
1728.757200,-4293.194464,-76456.330700,1332.370696
1728.759779,-14656.077652,-73085.510509,13619.789333
1728.762359,-4737.318029,-72779.072310,2664.741391
1728.764938,-5329.482782,-73391.948708,-4145.153275
1728.767518,20725.766376,-74004.825107,-16284.530724
1728.770097,13619.789333,-75690.235202,-5921.647536
1728.772677,-2516.700203,-74004.825107,-1924.535449
1728.775257,9326.594869,-71706.538613,-2368.659014
1728.777836,-9770.718434,-74617.701505,1332.370696
1728.780416,14508.036463,-75843.454302,-3108.864956
1728.782995,23834.631332,-74770.920605,-4885.359217
1728.785575,8290.306550,-75843.454302,148.041188
1728.788154,-10807.006753,-71859.757712,7105.977043
1728.790734,13471.748144,-71246.881314,-9326.594869
1728.793313,2368.659014,-73851.606007,444.123565
1728.795893,2368.659014,-79214.274493,-3849.070898
1728.798473,18653.189738,-74924.139704,-13175.665768
1728.801052,-9918.759623,-74924.139704,-16728.654289
1728.803632,3552.988522,-72012.976812,-19689.478057
1728.806211,888.247130,-72779.072310,444.123565
1728.808791,-4589.276840,-73698.386908,1480.411884
1728.811370,17172.777854,-74158.044206,-1036.288319
1728.813922,-4885.359217,-77375.645298,3849.070898
1728.816474,-0.000000,-74004.825107,2960.823768
1728.819025,-28868.031738,-75843.454302,20281.642811
1728.821577,-2960.823768,-71093.662214,14508.036463
1728.824129,-7254.018232,-75230.577904,13175.665768
1728.826681,10807.006753,-77069.207099,6069.688724
1728.829232,-1332.370696,-75690.235202,4885.359217
1728.831784,-21169.889941,-75690.235202,6365.771101
1728.834336,-17320.819043,-72166.195912,16432.571912
1728.836887,-11103.089130,-75843.454302,21169.889941
1728.839439,5033.400406,-74004.825107,-10658.965565
1728.841991,5625.565159,-77682.083497,3256.906145
1728.844543,-19985.560434,-73391.948708,11695.253884
1728.847094,-18949.272115,-71553.319513,14656.077652
1728.849646,-13471.748144,-73698.386908,20873.807564
1728.852198,-6513.812290,-75996.673402,17172.777854
1728.854749,6661.853478,-75383.797003,5625.565159
1728.857301,-1036.288319,-75996.673402,5033.400406
1728.859853,-17172.777854,-74311.263306,6365.771101
1728.862404,-20281.642811,-72166.195912,3256.906145
1728.864956,29460.196492,-73391.948708,-8438.347739
1728.867508,7254.018232,-74617.701505,-17616.901420
1728.870060,11843.295072,-73698.386908,-8882.471304
1728.872611,6069.688724,-74004.825107,-5625.565159
1728.875163,-4441.235652,-71706.538613,-3256.906145
1728.877715,4293.194464,-73545.167808,3256.906145
1728.880266,23538.548956,-76456.330700,-9474.636058
1728.882818,-2368.659014,-74617.701505,-9178.553681
1728.885370,-8586.388927,-75996.673402,1036.288319
1728.887921,14211.954086,-72779.072310,-13619.789333
1728.890473,-5625.565159,-73085.510509,28275.866984
1728.893025,6957.935855,-75077.358804,-10066.800811
1728.895577,11695.253884,-75690.235202,-11991.336260
1728.898128,-5921.647536,-76303.111601,-5773.606348
1728.900680,22206.178260,-72319.415011,-19985.560434
1728.903232,-5033.400406,-72779.072310,296.082377
1728.905783,9474.636058,-72319.415011,-8438.347739
1728.908335,-1036.288319,-73851.606007,5625.565159
1728.910887,10362.883188,-76149.892501,-4145.153275
1728.913439,-2664.741391,-74464.482406,7105.977043
1728.915996,-2812.782580,-74924.139704,10510.924376
1728.918554,-18209.066173,-72012.976812,20133.601622
1728.921112,592.164754,-73085.510509,10066.800811
1728.923670,-2960.823768,-74770.920605,4737.318029
1728.926227,9918.759623,-74924.139704,-3256.906145
1728.928785,-8290.306550,-74924.139704,9918.759623
1728.931343,-17912.983796,-72625.853210,10510.924376
1728.933901,-11695.253884,-70940.443115,12583.501014
1728.936458,-1924.535449,-73851.606007,-5773.606348
1728.939016,-6957.935855,-76609.549800,-9326.594869
1728.941574,-592.164754,-75690.235202,-0.000000
1728.944132,-18653.189738,-73698.386908,22354.219448
1728.946690,-14656.077652,-71706.538613,20133.601622
1728.949247,-9326.594869,-73698.386908,18949.272115
1728.951805,1628.453072,-75996.673402,5625.565159
1728.954363,4589.276840,-75690.235202,5625.565159
1728.956921,-16136.489536,-74770.920605,6957.935855
1728.959478,-1332.370696,-73545.167808,12435.459826
1728.962036,-5181.441594,-72932.291410,-1036.288319
1728.964594,20133.601622,-72779.072310,-20133.601622
1728.967152,5773.606348,-75077.358804,-11547.212695
1728.969710,17764.942608,-74770.920605,-8586.388927
1728.972267,-3701.029710,-73545.167808,-148.041188
1728.974825,5625.565159,-73085.510509,-2516.700203
1728.977383,-148.041188,-74004.825107,-2812.782580
1728.979941,10955.047942,-74311.263306,-9770.718434
1728.982498,22206.178260,-75996.673402,-1184.329507
1728.985056,-1776.494261,-72932.291410,-3256.906145
1728.987614,13027.624579,-69255.033019,-148.041188
1728.990172,-16284.530724,-75996.673402,11843.295072
1728.992730,7846.182985,-76456.330700,-13027.624579
1728.995287,19689.478057,-76303.111601,-8882.471304
1728.997845,11399.171507,-75690.235202,-12731.542202
1729.000403,740.205942,-71400.100414,-18061.024985
1729.002961,-5921.647536,-72779.072310,-6513.812290
1729.005518,-2220.617826,-73698.386908,6365.771101
1729.008076,5921.647536,-75537.016103,1924.535449
1729.010634,8142.265362,-75843.454302,3849.070898
1729.013192,5181.441594,-75077.358804,9918.759623
1729.015750,-25611.125593,-74770.920605,15544.324782
1729.018314,-17616.901420,-70940.443115,10807.006753
1729.020877,888.247130,-73851.606007,10955.047942
1729.023440,6957.935855,-74617.701505,5773.606348
1729.026003,-2516.700203,-75996.673402,4145.153275
1729.028567,-3849.070898,-73238.729609,2664.741391
1729.031130,-18801.230927,-73698.386908,19837.519246
1729.033693,-15840.407159,-73085.510509,18653.189738
1729.036257,-740.205942,-76609.549800,-1628.453072
1729.038820,13471.748144,-76303.111601,-3552.988522
1729.041383,-11547.212695,-74004.825107,17172.777854
1729.043947,-15840.407159,-71246.881314,12435.459826
1729.046510,-21021.848753,-73085.510509,23982.672521
1729.049073,-1628.453072,-76915.987999,19689.478057
1729.051636,5625.565159,-76609.549800,6069.688724
1729.054200,-11843.295072,-74158.044206,9030.512492
1729.056763,888.247130,-74158.044206,4589.276840
1729.059326,-13323.706956,-74311.263306,4589.276840
1729.061890,27683.702231,-73698.386908,-14804.118840
1729.064453,-3552.988522,-74311.263306,-15396.283594
1729.067016,14656.077652,-73391.948708,-16136.489536
1729.069580,-740.205942,-72472.634111,-148.041188
1729.072143,4589.276840,-74464.482406,-1332.370696
1729.074706,-740.205942,-74464.482406,444.123565
1729.077269,18949.272115,-75996.673402,-6661.853478
1729.079833,1036.288319,-75383.797003,-15544.324782
1729.082396,-0.000000,-73085.510509,-11399.171507
1729.084959,-1776.494261,-74924.139704,9326.594869
1729.087523,1924.535449,-71706.538613,8142.265362
1729.090086,4885.359217,-76762.768900,-0.000000
1729.092649,7994.224174,-75690.235202,-17912.983796
1729.095213,-8142.265362,-75077.358804,-15840.407159
1729.097776,17320.819043,-73085.510509,-14359.995275
1729.100339,-8586.388927,-71553.319513,-6217.729913
1729.102902,-11991.336260,-72625.853210,-148.041188
1729.105466,19097.313304,-74924.139704,5033.400406
1729.108029,-3256.906145,-76915.987999,3256.906145
1729.110592,1184.329507,-73391.948708,5329.482782
1729.113156,-14508.036463,-74924.139704,18949.272115
1729.115719,-11843.295072,-71246.881314,9178.553681
1729.118282,-7402.059420,-72932.291410,7698.141797
1729.120821,11695.253884,-74158.044206,2664.741391
1729.123360,-5625.565159,-75537.016103,3701.029710
1729.125899,-6809.894666,-71859.757712,6069.688724
1729.128437,-6661.853478,-71093.662214,20725.766376
1729.130976,-14952.160028,-72932.291410,1184.329507
1729.133515,31088.649564,-72932.291410,-5181.441594
1729.136054,-23982.672521,-77988.521696,17468.860231
1729.138592,18505.148550,-71400.100414,-296.082377
1729.141131,-8882.471304,-73698.386908,29460.196492
1729.143670,-10807.006753,-72012.976812,5921.647536
1729.146209,8586.388927,-72779.072310,3701.029710
1729.148747,-4737.318029,-76915.987999,10066.800811
1729.151286,-5033.400406,-73698.386908,7254.018232
1729.153825,3552.988522,-74617.701505,12731.542202
1729.156364,-2960.823768,-72472.634111,-4145.153275
1729.158902,17764.942608,-74617.701505,-16728.654289
1729.161441,8290.306550,-73698.386908,-7402.059420
1729.163980,13915.871710,-73545.167808,-6069.688724
1729.166519,3256.906145,-73085.510509,-3256.906145
1729.169057,-2516.700203,-73851.606007,-1332.370696
1729.171596,10807.006753,-76609.549800,-4885.359217
1729.174135,5329.482782,-76762.768900,-1480.411884
1729.176674,13027.624579,-75690.235202,-7402.059420
1729.179212,-7846.182985,-74158.044206,1036.288319
1729.181751,1036.288319,-71706.538613,888.247130
1729.184290,3849.070898,-72932.291410,-3108.864956
1729.186828,5477.523971,-77375.645298,-9030.512492
1729.189367,13471.748144,-77222.426198,-12139.377449
1729.191906,7402.059420,-74770.920605,-14656.077652
1729.194445,-2812.782580,-72472.634111,-12287.418637
1729.196983,-592.164754,-72779.072310,-6661.853478
1729.199522,-3997.112087,-73085.510509,8734.430116
1729.202061,9178.553681,-76149.892501,-2812.782580
1729.204600,-1776.494261,-75230.577904,6069.688724
1729.207138,-12731.542202,-77069.207099,13323.706956
1729.209677,-17024.736666,-73545.167808,13767.830521
1729.212216,-16580.613101,-72319.415011,13767.830521
1729.214755,-444.123565,-74617.701505,9326.594869
1729.217293,10658.965565,-74924.139704,5033.400406
1729.219832,-4885.359217,-75996.673402,5033.400406
1729.222380,-11843.295072,-72779.072310,10807.006753
1729.224928,-22650.301825,-73545.167808,22206.178260
1729.227476,-8290.306550,-74311.263306,-6365.771101
1729.230024,8882.471304,-77988.521696,12879.583391
1729.232571,-9178.553681,-75996.673402,5477.523971
1729.235119,-444.123565,-71246.881314,12731.542202
1729.237667,-20281.642811,-73545.167808,19097.313304
1729.240215,-3404.947333,-72166.195912,7550.100608
1729.242763,-8734.430116,-74924.139704,11103.089130
1729.245310,8142.265362,-75537.016103,444.123565
1729.247858,-6661.853478,-72779.072310,12731.542202
1729.250406,-4589.276840,-74158.044206,-1776.494261
1729.252954,7698.141797,-73545.167808,-8142.265362
1729.255502,15988.448347,-74311.263306,-14952.160028
1729.258049,6069.688724,-73085.510509,-4589.276840
1729.260597,-3997.112087,-73545.167808,-2368.659014
1729.263145,5773.606348,-72472.634111,-8586.388927
1729.265693,148.041188,-74617.701505,2072.576638
1729.268241,11843.295072,-75230.577904,-5921.647536
1729.270789,740.205942,-73545.167808,-5477.523971
1729.273336,14063.912898,-74924.139704,-15840.407159
1729.275884,-3701.029710,-72319.415011,5773.606348
1729.278432,-21317.931130,-73238.729609,10658.965565
1729.280980,25611.125593,-74617.701505,-13027.624579
1729.283528,18209.066173,-77835.302597,-6957.935855
1729.286075,5921.647536,-74924.139704,-19985.560434
1729.288623,10362.883188,-72166.195912,-17320.819043
1729.291171,-5625.565159,-72166.195912,-2960.823768
1729.293719,1776.494261,-72472.634111,5329.482782
1729.296267,14359.995275,-75230.577904,9474.636058
1729.298815,-4737.318029,-75996.673402,5329.482782
1729.301362,10955.047942,-75077.358804,4441.235652
1729.303910,-27831.743419,-74464.482406,18653.189738
1729.306458,-5033.400406,-71706.538613,10214.842000
1729.309006,-10955.047942,-73698.386908,14952.160028
1729.311554,10362.883188,-74770.920605,4737.318029
1729.314101,1628.453072,-75537.016103,4441.235652
1729.316649,-14952.160028,-75843.454302,8142.265362
1729.319197,-7846.182985,-71093.662214,2812.782580
1729.321745,-5329.482782,-73238.729609,15692.365970
1729.324301,10362.883188,-77682.083497,5477.523971
1729.326856,6069.688724,-74464.482406,5329.482782
1729.329412,-3552.988522,-72625.853210,8290.306550
1729.331967,-14211.954086,-72319.415011,18653.189738
1729.334523,-12287.418637,-72779.072310,13323.706956
1729.337079,888.247130,-74464.482406,7402.059420
1729.339634,-1628.453072,-75690.235202,3997.112087
1729.342190,-740.205942,-73238.729609,8734.430116
1729.344746,-12139.377449,-74158.044206,5033.400406
1729.347301,13175.665768,-73391.948708,-17320.819043
1729.349857,9030.512492,-74464.482406,-14063.912898
1729.352412,10807.006753,-73238.729609,-7550.100608
1729.354968,6661.853478,-72472.634111,-2072.576638
1729.357524,5033.400406,-73545.167808,-4145.153275
1729.360079,2220.617826,-74617.701505,-1184.329507
1729.362635,1332.370696,-77222.426198,-5625.565159
1729.365191,9622.677246,-76609.549800,148.041188
1729.367746,4885.359217,-76915.987999,13027.624579
1729.370302,8586.388927,-73545.167808,-15100.201217
1729.372857,28868.031738,-69867.909418,-10807.006753
1729.375413,-15840.407159,-75843.454302,-1480.411884
1729.377969,14952.160028,-76609.549800,-19985.560434
1729.380524,1628.453072,-77528.864398,-3849.070898
1729.383080,6513.812290,-73851.606007,-22354.219448
1729.385636,-8586.388927,-71859.757712,-4293.194464
1729.388191,-888.247130,-73851.606007,1036.288319
1729.390747,21021.848753,-73698.386908,-7105.977043
1729.393302,-15100.201217,-77375.645298,9474.636058
1729.395858,6365.771101,-74158.044206,4145.153275
1729.398414,-23982.672521,-75077.358804,23538.548956
1729.400969,-4589.276840,-71553.319513,8734.430116
1729.403525,-13175.665768,-74158.044206,10955.047942
1729.406081,10955.047942,-75077.358804,4293.194464
1729.408636,-5921.647536,-75996.673402,5773.606348
1729.411192,-9918.759623,-75230.577904,9178.553681
1729.413747,-25759.166782,-72779.072310,23834.631332
1729.416303,-12583.501014,-73851.606007,-1036.288319
1729.418859,8290.306550,-74464.482406,-2072.576638
1729.421414,-1480.411884,-77222.426198,6809.894666
1729.423970,2664.741391,-70480.785816,13915.871710
1729.426531,-12287.418637,-72166.195912,21169.889941
1729.429093,-3849.070898,-75077.358804,17616.901420
1729.431654,-6661.853478,-75230.577904,8882.471304
1729.434216,-0.000000,-74924.139704,444.123565
1729.436777,-1924.535449,-73545.167808,8586.388927
1729.439339,-9178.553681,-75077.358804,5773.606348
1729.441900,18949.272115,-72625.853210,-19097.313304
1729.444461,1924.535449,-74311.263306,-14211.954086
1729.447023,12879.583391,-73238.729609,-11103.089130
1729.449584,8290.306550,-72625.853210,1480.411884
1729.452146,-2368.659014,-74464.482406,-1924.535449
1729.454707,6957.935855,-74770.920605,-1332.370696
1729.457268,12287.418637,-75537.016103,-5181.441594
1729.459830,13619.789333,-75843.454302,444.123565
1729.462391,11695.253884,-73698.386908,-3256.906145
1729.464953,2812.782580,-71093.662214,-2960.823768
1729.467514,-8290.306550,-71706.538613,1628.453072
1729.470076,16876.695478,-75843.454302,-13175.665768
1729.472637,5477.523971,-76456.330700,-14359.995275
1729.475198,8734.430116,-76303.111601,-17172.777854
1729.477760,3849.070898,-72319.415011,-13175.665768
1729.480321,-13175.665768,-72319.415011,-4293.194464
1729.482883,7994.224174,-71553.319513,4885.359217
1729.485444,11399.171507,-77069.207099,-1924.535449
1729.488006,-296.082377,-75537.016103,8586.388927
1729.490567,-11103.089130,-76609.549800,6957.935855
1729.493128,-16284.530724,-73085.510509,19097.313304
1729.495690,-12731.542202,-72166.195912,14359.995275
1729.498251,2516.700203,-72166.195912,11991.336260
1729.500813,8142.265362,-76303.111601,2812.782580
1729.503374,-8586.388927,-75537.016103,-3256.906145
1729.505936,-9178.553681,-71859.757712,3256.906145
1729.508497,-14508.036463,-71246.881314,19985.560434
1729.511058,-15100.201217,-75383.797003,3256.906145
1729.513620,18801.230927,-74464.482406,-8290.306550
1729.516181,-17468.860231,-75996.673402,15988.448347
1729.518743,-296.082377,-71400.100414,5921.647536
1729.521304,-22798.343014,-73238.729609,22058.137072
1729.523866,-16432.571912,-75537.016103,12879.583391
1729.526427,7254.018232,-74311.263306,5329.482782
1729.528993,-13027.624579,-75077.358804,14952.160028
1729.531559,4145.153275,-73391.948708,-1776.494261
1729.534126,-3701.029710,-75383.797003,-1036.288319
1729.536692,24870.919651,-73238.729609,-19097.313304
1729.539258,-2516.700203,-73545.167808,-9622.677246
1729.541824,-1776.494261,-73085.510509,-14656.077652
1729.544391,4589.276840,-71553.319513,-3404.947333
1729.546957,4145.153275,-76609.549800,3256.906145
1729.549523,3701.029710,-75537.016103,-4885.359217
1729.552089,24278.754898,-76915.987999,-1332.370696
1729.554655,11695.253884,-73238.729609,-12583.501014
1729.557222,-11103.089130,-72319.415011,3552.988522
1729.559788,20725.766376,-73085.510509,7105.977043
1729.562354,25167.002028,-74158.044206,-11695.253884
1729.564920,9918.759623,-76456.330700,-13767.830521
1729.567487,17468.860231,-75996.673402,-18949.272115
1729.570053,3997.112087,-73545.167808,-13619.789333
1729.572619,296.082377,-72319.415011,-4885.359217
1729.575185,5773.606348,-71706.538613,-592.164754
1729.577752,148.041188,-73698.386908,2664.741391
1729.580318,3997.112087,-75996.673402,-4293.194464
1729.582884,-592.164754,-75537.016103,1480.411884
1729.585450,-33457.308578,-75996.673402,22502.260637
1729.588016,2220.617826,-71706.538613,15100.201217
1729.590583,-10214.842000,-73545.167808,19097.313304
1729.593149,9770.718434,-74311.263306,-1184.329507
1729.595715,-8586.388927,-74924.139704,1036.288319
1729.598281,-12879.583391,-75690.235202,3552.988522
1729.600848,-14508.036463,-73238.729609,6957.935855
1729.603414,-11251.130318,-73085.510509,20281.642811
1729.605980,-2516.700203,-75996.673402,-5477.523971
1729.608546,18061.024985,-73545.167808,3552.988522
1729.611117,-17172.777854,-74464.482406,14063.912898
1729.613688,-10510.924376,-72166.195912,18061.024985
1729.616259,-8142.265362,-75230.577904,20281.642811
1729.618829,4589.276840,-75690.235202,8586.388927
1729.621400,-11695.253884,-74464.482406,12731.542202
1729.623971,3256.906145,-75077.358804,2368.659014
1729.626542,4737.318029,-74311.263306,1036.288319
1729.629112,23538.548956,-75996.673402,-15840.407159
1729.631683,-15544.324782,-73698.386908,-12879.583391
1729.634254,20725.766376,-72472.634111,-9622.677246
1729.636825,6809.894666,-72319.415011,-4589.276840
1729.639396,-12139.377449,-75690.235202,-888.247130
1729.641966,17024.736666,-76303.111601,-3552.988522
1729.644537,3552.988522,-76303.111601,-3256.906145
1729.647108,-24130.713709,-75690.235202,2220.617826
1729.649679,21317.931130,-73085.510509,-18949.272115
1729.652249,-6217.729913,-72012.976812,7846.182985
1729.654820,-13175.665768,-73851.606007,-1480.411884
1729.657391,38934.832549,-75383.797003,-16136.489536
1729.659962,-14508.036463,-77528.864398,-8290.306550
