#time,accel_x,accel_y,accel_z
3123.460612,-631.705166,38.285162,-9054.440718
3123.463178,-669.990328,38.285162,-9111.868461
3123.465743,-689.132909,-76.570323,-9073.583299
3123.468308,-631.705166,95.712904,-9035.298138
3123.470873,-593.420005,-38.285162,-9016.155557
3123.473438,-650.847747,19.142581,-9073.583299
3123.476004,-631.705166,-19.142581,-9073.583299
3123.478569,-497.707101,-95.712904,-9111.868461
3123.481134,153.140646,-1971.685822,-9035.298138
3123.483699,-803.988394,918.843878,-8863.014910
3123.486264,-325.423874,-382.851616,-8882.157491
3123.488829,-918.843878,-19.142581,-8977.870395
3123.491395,421.136778,-1091.127106,-9226.723946
3123.493960,1071.984525,-689.132909,-9073.583299
3123.496525,1856.830338,-1397.408398,-9379.864592
3123.499090,1205.982590,-823.130974,-9188.438784
3123.501655,-1014.556782,363.709035,-8767.302006
3123.504221,-2431.107762,-593.420005,-8786.444587
3123.506786,-2297.109696,1531.406464,-9035.298138
3123.509351,-1665.404530,-57.427742,-9226.723946
3123.511916,-1052.841944,708.275490,-9226.723946
3123.514481,-325.423874,-421.136778,-9016.155557
3123.517047,0.000000,1339.980656,-8939.585234
3123.519612,-57.427742,287.138712,-9016.155557
3123.522177,-1110.269686,746.560651,-8920.442653
3123.524742,-1703.689691,650.847747,-9016.155557
3123.527307,-2086.541307,-19.142581,-8977.870395
3123.529872,-1684.547110,861.416136,-8920.442653
3123.532437,-1129.412267,153.140646,-9035.298138
3123.535002,-555.134843,1378.265818,-8901.300072
3123.537567,-593.420005,-823.130974,-9245.866526
3123.540132,-153.140646,-459.421939,-9226.723946
3123.542697,-2354.537438,-478.564520,-9111.868461
3123.545262,-1225.125171,574.277424,-9035.298138
3123.547827,-401.994197,-57.427742,-9092.725880
3123.550391,-2029.113565,1225.125171,-9188.438784
3123.552956,-401.994197,957.129040,-9207.581365
3123.555521,-727.418070,-38.285162,-8709.874264
3123.558086,-1205.982590,1761.117434,-8939.585234
3123.560651,-1282.552914,-459.421939,-9150.153622
3123.563216,-2086.541307,1397.408398,-8805.587168
3123.565781,-1512.263883,-114.855485,-9131.011042
3123.568346,-1110.269686,631.705166,-9092.725880
3123.570911,-593.420005,1244.267752,-9016.155557
3123.573476,-1397.408398,555.134843,-9035.298138
3123.576041,-1014.556782,0.000000,-9035.298138
3123.578606,-995.414202,-957.129040,-9111.868461
3123.581171,-1014.556782,727.418070,-9150.153622
3123.583736,-842.273555,1416.550979,-8997.012976
3123.586301,-1493.121302,2182.254211,-8824.729749
3123.588866,-1512.263883,650.847747,-9016.155557
3123.591430,-1588.834206,-2143.969050,-9092.725880
3123.593995,-401.994197,-1263.410333,-9322.436850
3123.596560,-1320.838075,-765.703232,-9456.434915
3123.599125,-76.570323,1607.976787,-8939.585234
3123.601690,287.138712,-191.425808,-8748.159426
3123.604255,-708.275490,0.000000,-8901.300072
3123.606820,-1397.408398,-2316.252277,-9207.581365
3123.609385,-1052.841944,-248.853550,-9188.438784
3123.611950,114.855485,-746.560651,-9303.294269
3123.614515,95.712904,153.140646,-9016.155557
3123.617080,708.275490,133.998066,-9016.155557
3123.619645,-535.992262,-172.283227,-8997.012976
3123.622210,-918.843878,-574.277424,-8958.727814
3123.624775,-823.130974,-1186.840010,-9150.153622
3123.627340,-918.843878,-382.851616,-9207.581365
3123.629904,-267.996131,-861.416136,-9150.153622
3123.632469,-191.425808,-19.142581,-8958.727814
3123.635034,287.138712,-899.701298,-9322.436850
3123.637599,440.279358,-306.281293,-9111.868461
3123.640163,-363.709035,-2316.252277,-8920.442653
3123.642728,-1512.263883,842.273555,-8901.300072
3123.645293,-363.709035,459.421939,-9111.868461
3123.647857,-803.988394,727.418070,-8920.442653
3123.650422,-76.570323,-1129.412267,-9188.438784
3123.652987,-440.279358,-669.990328,-9131.011042
3123.655552,-344.566454,823.130974,-9111.868461
3123.658116,114.855485,-880.558717,-9360.722011
3123.660681,172.283227,-267.996131,-9073.583299
3123.663246,842.273555,-1703.689691,-9150.153622
3123.665811,95.712904,363.709035,-8882.157491
3123.668375,-267.996131,-1205.982590,-9131.011042
3123.670940,-1052.841944,631.705166,-9092.725880
3123.673505,-1627.119368,-191.425808,-9073.583299
3123.676069,-1129.412267,-306.281293,-9150.153622
3123.678634,267.996131,-1320.838075,-9322.436850
3123.681199,229.710970,-287.138712,-9265.009107
3123.683764,727.418070,-861.416136,-9188.438784
3123.686328,-76.570323,765.703232,-8882.157491
3123.688893,-325.423874,-1282.552914,-8977.870395
3123.691458,-325.423874,-191.425808,-9035.298138
3123.694023,-3751.945837,1914.258080,-9111.868461
3123.696587,-2354.537438,1665.404530,-9054.440718
3123.699152,-19.142581,-401.994197,-9207.581365
3123.701717,-842.273555,-440.279358,-9092.725880
3123.704281,-669.990328,516.849682,-9265.009107
3123.706846,-746.560651,2258.824534,-8786.444587
3123.709411,-708.275490,1014.556782,-8920.442653
3123.711976,-1091.127106,-976.271621,-9092.725880
3123.714540,-1761.117434,-440.279358,-8997.012976
3123.717105,-1052.841944,401.994197,-9111.868461
3123.719670,-1531.406464,2967.100024,-9054.440718
3123.722235,-1186.840010,650.847747,-8958.727814
3123.724799,-1205.982590,421.136778,-8997.012976
3123.727364,-957.129040,-1110.269686,-9188.438784
3123.729929,-957.129040,-95.712904,-9035.298138
3123.732493,-937.986459,325.423874,-9035.298138
3123.735058,-1110.269686,1263.410333,-9111.868461
3123.737623,-1971.685822,-1033.699363,-9131.011042
3123.740188,-2105.683888,1473.978722,-8824.729749
3123.742752,114.855485,-555.134843,-9169.296203
3123.745317,-555.134843,2182.254211,-9092.725880
3123.747882,535.992262,1550.549045,-8977.870395
3123.750446,-1263.410333,-612.562586,-8824.729749
3123.753011,-1148.554848,2507.678085,-8671.589102
3123.755576,-1454.836141,-1588.834206,-9188.438784
3123.758140,-2297.109696,2297.109696,-8843.872330
3123.760705,-976.271621,-287.138712,-9016.155557
3123.763270,-1397.408398,1799.402595,-8805.587168
3123.765835,-555.134843,784.845813,-9054.440718
3123.768399,-1416.550979,440.279358,-9035.298138
3123.770964,-918.843878,19.142581,-9035.298138
3123.773529,-363.709035,-612.562586,-9207.581365
3123.776093,-918.843878,1416.550979,-8997.012976
3123.778658,-823.130974,880.558717,-8824.729749
3123.781223,-1914.258080,2220.539373,-8882.157491
3123.783787,-1473.978722,114.855485,-9150.153622
3123.786352,-1454.836141,-1339.980656,-9111.868461
3123.788917,-363.709035,-1454.836141,-9494.720077
3123.791482,-1627.119368,-325.423874,-9188.438784
3123.794046,-76.570323,1301.695494,-8997.012976
3123.796611,612.562586,-1473.978722,-8901.300072
3123.799176,-440.279358,497.707101,-9073.583299
3123.801740,-1205.982590,-2660.818731,-9169.296203
3123.804305,-1244.267752,210.568389,-9016.155557
3123.806870,-191.425808,-382.851616,-9188.438784
3123.809434,0.000000,-497.707101,-9111.868461
3123.811999,574.277424,-421.136778,-9226.723946
3123.814564,-421.136778,-191.425808,-9054.440718
3123.817128,-842.273555,-306.281293,-9016.155557
3123.819693,-555.134843,-765.703232,-9092.725880
3123.822258,-861.416136,-803.988394,-9188.438784
3123.824823,-76.570323,-535.992262,-9245.866526
3123.827387,-325.423874,210.568389,-8958.727814
3123.829952,-57.427742,-574.277424,-9016.155557
3123.832517,-306.281293,-38.285162,-9092.725880
3123.835064,-133.998066,-19.142581,-8977.870395
3123.837612,-861.416136,-95.712904,-9035.298138
3123.840159,-535.992262,574.277424,-9169.296203
3123.842706,-172.283227,-1071.984525,-9131.011042
3123.845254,-957.129040,-765.703232,-8920.442653
3123.847801,-746.560651,-746.560651,-9169.296203
3123.850349,0.000000,-1378.265818,-9303.294269
3123.852896,440.279358,459.421939,-9169.296203
3123.855443,1033.699363,-1244.267752,-9341.579430
3123.857991,-38.285162,-440.279358,-8939.585234
3123.860538,-38.285162,-478.564520,-9035.298138
3123.863086,-1416.550979,421.136778,-9035.298138
3123.865633,-861.416136,574.277424,-9073.583299
3123.868181,-229.710970,-1875.972918,-9150.153622
3123.870728,-191.425808,133.998066,-9207.581365
3123.873275,574.277424,-1473.978722,-9303.294269
3123.875823,459.421939,267.996131,-9016.155557
3123.878370,-210.568389,-593.420005,-8997.012976
3123.880918,-95.712904,-76.570323,-9073.583299
3123.883465,-497.707101,-669.990328,-8901.300072
3123.886013,-727.418070,2928.814862,-8729.016845
3123.888560,-2067.398726,-1397.408398,-9207.581365
3123.891107,-1607.976787,803.988394,-9188.438784
3123.893655,-325.423874,-497.707101,-9169.296203
3123.896202,-459.421939,2431.107762,-8882.157491
3123.898750,-765.703232,727.418070,-8977.870395
3123.901297,-1454.836141,650.847747,-9016.155557
3123.903845,-1550.549045,-995.414202,-9092.725880
3123.906392,-1225.125171,-19.142581,-9016.155557
3123.908939,-1225.125171,1550.549045,-8977.870395
3123.911487,-1359.123237,2297.109696,-8958.727814
3123.914034,-1186.840010,689.132909,-8977.870395
3123.916582,-1397.408398,-497.707101,-9073.583299
3123.919129,-1033.699363,-478.564520,-9245.866526
3123.921676,-516.849682,172.283227,-8901.300072
3123.924224,-440.279358,1186.840010,-8882.157491
3123.926771,-918.843878,-555.134843,-9054.440718
3123.929319,-2545.963246,842.273555,-8997.012976
3123.931866,-669.990328,-516.849682,-9150.153622
3123.934414,-727.418070,363.709035,-9035.298138
3123.936963,440.279358,2584.248408,-9188.438784
3123.939513,-784.845813,76.570323,-8805.587168
3123.942063,-1646.261949,2220.539373,-8748.159426
3123.944612,-1359.123237,-1531.406464,-9265.009107
3123.947162,-2431.107762,1091.127106,-9035.298138
3123.949711,-957.129040,1225.125171,-9169.296203
3123.952261,-1837.687757,1818.545176,-8920.442653
3123.954811,-861.416136,746.560651,-9054.440718
3123.957360,-976.271621,-497.707101,-8977.870395
3123.959910,-516.849682,-172.283227,-9150.153622
3123.962460,-172.283227,-95.712904,-9284.151688
3123.965009,-1071.984525,2239.681954,-8786.444587
3123.967559,-1588.834206,1397.408398,-8863.014910
3123.970108,-2316.252277,1091.127106,-8958.727814
3123.972658,-1703.689691,-1684.547110,-9073.583299
3123.975208,-842.273555,-2143.969050,-9284.151688
3123.977757,1263.410333,2584.248408,-9111.868461
3123.980307,1339.980656,-191.425808,-8997.012976
3123.982857,267.996131,-95.712904,-8709.874264
3123.985406,-325.423874,-1091.127106,-9150.153622
3123.987956,-1263.410333,-1435.693560,-9092.725880
3123.990506,-689.132909,-803.988394,-9150.153622
3123.993055,-306.281293,95.712904,-9111.868461
3123.995605,-650.847747,593.420005,-9111.868461
3123.998154,669.990328,-1550.549045,-9207.581365
3124.000704,-497.707101,-421.136778,-9111.868461
3124.003254,76.570323,-555.134843,-9092.725880
3124.005803,-535.992262,19.142581,-8939.585234
3124.008353,-1014.556782,-1205.982590,-9188.438784
3124.010903,-401.994197,-612.562586,-9265.009107
3124.013452,-306.281293,-1416.550979,-9035.298138
3124.016002,-191.425808,-1033.699363,-9379.864592
3124.018551,210.568389,-1225.125171,-9284.151688
3124.021101,-2182.254211,-593.420005,-8901.300072
3124.023651,-1339.980656,-995.414202,-9322.436850
3124.026200,-1263.410333,-133.998066,-8863.014910
3124.028750,-344.566454,1722.832272,-9418.149754
3124.031300,-38.285162,-1856.830338,-8863.014910
3124.033849,19.142581,1397.408398,-8729.016845
3124.036399,478.564520,-2545.963246,-9188.438784
3124.038951,-153.140646,669.990328,-9111.868461
3124.041503,918.843878,-2277.967115,-9379.864592
3124.044054,-861.416136,1397.408398,-8920.442653
3124.046606,-421.136778,-727.418070,-9092.725880
3124.049158,-1435.693560,363.709035,-8863.014910
3124.051710,-976.271621,-1875.972918,-9245.866526
3124.054262,-153.140646,-574.277424,-9265.009107
3124.056813,267.996131,-440.279358,-9169.296203
3124.059365,765.703232,-95.712904,-9111.868461
3124.061917,-516.849682,-421.136778,-8997.012976
3124.064469,267.996131,-1493.121302,-9054.440718
3124.067020,-803.988394,191.425808,-9054.440718
3124.069572,-1665.404530,2029.113565,-8920.442653
3124.072124,-2890.529701,248.853550,-9016.155557
3124.074676,-1359.123237,267.996131,-9188.438784
3124.077228,-727.418070,-1071.984525,-9169.296203
3124.079779,-382.851616,2545.963246,-8939.585234
3124.082331,-497.707101,401.994197,-8958.727814
3124.084883,-1167.697429,861.416136,-8997.012976
3124.087435,-1205.982590,-784.845813,-8977.870395
3124.089987,-1263.410333,-95.712904,-8958.727814
3124.092538,-1167.697429,689.132909,-9054.440718
3124.095090,-1435.693560,2297.109696,-8977.870395
3124.097642,-1378.265818,765.703232,-9073.583299
3124.100194,-1301.695494,76.570323,-8977.870395
3124.102746,-899.701298,-19.142581,-8958.727814
3124.105297,-1071.984525,-76.570323,-9035.298138
3124.107849,-918.843878,114.855485,-9035.298138
3124.110401,-1167.697429,3081.955509,-8901.300072
3124.112953,-746.560651,-267.996131,-9054.440718
3124.115505,-114.855485,-1263.410333,-9265.009107
3124.118056,-765.703232,-765.703232,-9226.723946
3124.120608,-1129.412267,1722.832272,-9111.868461
3124.123160,-1320.838075,535.992262,-9150.153622
3124.125712,-1665.404530,401.994197,-8997.012976
3124.128264,-1895.115499,-1148.554848,-9092.725880
3124.130815,-2124.826469,1359.123237,-8920.442653
3124.133367,-1646.261949,1607.976787,-9188.438784
3124.135919,-1473.978722,823.130974,-9092.725880
3124.138471,-478.564520,-535.992262,-9111.868461
3124.141007,-267.996131,-1225.125171,-8977.870395
3124.143544,-612.562586,1110.269686,-8958.727814
3124.146081,-574.277424,957.129040,-9016.155557
3124.148617,-1684.547110,2488.535504,-8997.012976
3124.151154,-1933.400661,593.420005,-9035.298138
3124.153690,-2354.537438,-2679.961312,-9016.155557
3124.156227,-267.996131,803.988394,-9379.864592
3124.158763,-880.558717,-191.425808,-9456.434915
3124.161300,976.271621,842.273555,-9111.868461
3124.163837,784.845813,-1071.984525,-8805.587168
3124.166373,-229.710970,-114.855485,-8920.442653
3124.168910,-1225.125171,-2048.256146,-9207.581365
3124.171446,-1531.406464,-650.847747,-9188.438784
3124.173983,-478.564520,191.425808,-9284.151688
3124.176519,-555.134843,-248.853550,-9092.725880
3124.179056,574.277424,-1091.127106,-9207.581365
3124.181593,-191.425808,-899.701298,-9131.011042
3124.184129,-421.136778,-210.568389,-9092.725880
3124.186666,-76.570323,-267.996131,-9016.155557
3124.189202,-995.414202,-765.703232,-9054.440718
3124.191739,-382.851616,-1167.697429,-9131.011042
3124.194276,76.570323,612.562586,-8786.444587
3124.196812,631.705166,880.558717,-9150.153622
3124.199349,363.709035,-2029.113565,-9284.151688
3124.201885,-1818.545176,-267.996131,-8901.300072
3124.204422,-803.988394,-2507.678085,-9188.438784
3124.206958,-1435.693560,-248.853550,-9150.153622
3124.209495,363.709035,650.847747,-9303.294269
3124.212032,38.285162,-2335.394858,-9226.723946
3124.214568,382.851616,574.277424,-9073.583299
3124.217105,918.843878,-1933.400661,-9322.436850
3124.219641,133.998066,861.416136,-9035.298138
3124.222178,0.000000,-995.414202,-9150.153622
3124.224714,-1435.693560,248.853550,-8882.157491
3124.227251,-1014.556782,-1473.978722,-9226.723946
3124.229788,-593.420005,-765.703232,-9226.723946
3124.232324,-210.568389,-133.998066,-9188.438784
3124.234861,306.281293,-784.845813,-9226.723946
3124.237397,76.570323,382.851616,-9073.583299
3124.239934,287.138712,-1588.834206,-9131.011042
3124.242474,76.570323,-593.420005,-9092.725880
3124.245015,-1531.406464,191.425808,-8843.872330
3124.247555,-823.130974,2833.101958,-8786.444587
3124.250096,-842.273555,-631.705166,-9111.868461
3124.252636,-1665.404530,0.000000,-9169.296203
3124.255177,-1014.556782,-497.707101,-9322.436850
3124.257717,-478.564520,2124.826469,-8863.014910
3124.260258,-325.423874,957.129040,-8882.157491
3124.262798,-784.845813,287.138712,-9016.155557
3124.265339,-1588.834206,-1205.982590,-9092.725880
3124.267879,-1493.121302,440.279358,-9054.440718
3124.270419,-1550.549045,1971.685822,-9073.583299
3124.272960,-1359.123237,1761.117434,-8997.012976
3124.275500,-1493.121302,746.560651,-8958.727814
3124.278041,-995.414202,-363.709035,-9150.153622
3124.280581,-937.986459,-497.707101,-9016.155557
3124.283122,-459.421939,1282.552914,-8958.727814
3124.285662,-172.283227,976.271621,-9054.440718
3124.288203,-1761.117434,-535.992262,-8863.014910
3124.290743,-1895.115499,2775.674216,-8958.727814
3124.293284,727.418070,-497.707101,-9092.725880
3124.295824,-995.414202,-1244.267752,-9207.581365
3124.298365,-497.707101,2105.683888,-9035.298138
3124.300905,-2086.541307,976.271621,-8863.014910
3124.303445,-2545.963246,2316.252277,-8901.300072
3124.305986,-1627.119368,-38.285162,-9284.151688
3124.308526,-1646.261949,765.703232,-8997.012976
3124.311067,-497.707101,650.847747,-9092.725880
3124.313607,-746.560651,555.134843,-9016.155557
3124.316148,210.568389,133.998066,-9092.725880
3124.318688,-631.705166,19.142581,-8939.585234
3124.321229,-1339.980656,2507.678085,-8882.157491
3124.323769,-1378.265818,114.855485,-9150.153622
3124.326310,-2316.252277,535.992262,-8997.012976
3124.328850,-1531.406464,-2431.107762,-9303.294269
3124.331391,593.420005,2335.394858,-8882.157491
3124.333931,114.855485,-2277.967115,-9169.296203
3124.336471,-95.712904,1244.267752,-9035.298138
3124.339012,746.560651,-2220.539373,-9245.866526
3124.341552,-248.853550,210.568389,-8939.585234
3124.344097,-1091.127106,-421.136778,-9073.583299
3124.346641,-669.990328,325.423874,-9054.440718
3124.349185,-708.275490,-153.140646,-9188.438784
3124.351729,76.570323,-1186.840010,-9265.009107
3124.354273,363.709035,-325.423874,-9188.438784
3124.356817,76.570323,-421.136778,-9016.155557
3124.359361,-478.564520,-210.568389,-9016.155557
3124.361905,-535.992262,-1320.838075,-9169.296203
3124.364449,-421.136778,-593.420005,-9150.153622
3124.366993,-861.416136,-1837.687757,-9284.151688
3124.369538,-229.710970,-1397.408398,-9054.440718
3124.372082,-1493.121302,1914.258080,-9150.153622
3124.374626,976.271621,-114.855485,-9016.155557
3124.377170,-650.847747,746.560651,-8920.442653
3124.379714,325.423874,-1665.404530,-8997.012976
3124.382258,114.855485,-1033.699363,-8958.727814
3124.384802,38.285162,612.562586,-8920.442653
3124.387346,76.570323,-1569.691626,-9265.009107
3124.389890,459.421939,-38.285162,-8901.300072
3124.392434,612.562586,-2009.970984,-9188.438784
3124.394979,-823.130974,1129.412267,-8977.870395
3124.397523,-497.707101,-1205.982590,-9207.581365
3124.400067,-1167.697429,-593.420005,-9054.440718
3124.402611,-382.851616,-669.990328,-9245.866526
3124.405155,38.285162,-363.709035,-9111.868461
3124.407699,248.853550,-57.427742,-9016.155557
3124.410243,-172.283227,-459.421939,-9073.583299
3124.412787,344.566454,-861.416136,-9054.440718
3124.415331,114.855485,-1052.841944,-9111.868461
3124.417876,-3139.383251,3062.812928,-8997.012976
3124.420420,-2699.103893,-861.416136,-9092.725880
3124.422964,-1741.974853,765.703232,-9092.725880
3124.425508,-689.132909,-421.136778,-9131.011042
3124.428052,-650.847747,1799.402595,-9073.583299
3124.430596,-803.988394,976.271621,-9016.155557
3124.433140,-937.986459,1014.556782,-9016.155557
3124.435684,-1071.984525,-382.851616,-9016.155557
3124.438228,-823.130974,-1244.267752,-8977.870395
3124.440772,-1627.119368,842.273555,-8901.300072
3124.443317,-1339.980656,2641.676150,-9111.868461
3124.445864,-1531.406464,1339.980656,-8901.300072
3124.448411,-1512.263883,401.994197,-8997.012976
3124.450958,-1052.841944,-976.271621,-9284.151688
3124.453505,-746.560651,-325.423874,-8977.870395
3124.456052,-1646.261949,38.285162,-8920.442653
3124.458599,-1569.691626,4689.932296,-8997.012976
3124.461146,-612.562586,-4402.793584,-9092.725880
3124.463693,-1799.402595,2488.535504,-8958.727814
3124.466240,-153.140646,803.988394,-9322.436850
3124.468787,-1301.695494,-325.423874,-8786.444587
3124.471334,-631.705166,2947.957443,-8843.872330
3124.473881,-2699.103893,344.566454,-8977.870395
3124.476428,-2794.816797,1799.402595,-8882.157491
3124.478975,-1148.554848,-1493.121302,-9303.294269
3124.481522,-976.271621,765.703232,-9035.298138
3124.484069,287.138712,-325.423874,-9188.438784
3124.486616,-421.136778,1263.410333,-8863.014910
3124.489163,-555.134843,918.843878,-8901.300072
3124.491710,-1665.404530,1378.265818,-8863.014910
3124.494257,-2029.113565,210.568389,-9073.583299
3124.496804,-1435.693560,-1722.832272,-9207.581365
3124.499351,-937.986459,1301.695494,-9245.866526
3124.501898,-593.420005,-401.994197,-9188.438784
3124.504445,861.416136,229.710970,-8939.585234
3124.506992,823.130974,-1722.832272,-9016.155557
3124.509539,459.421939,133.998066,-9284.151688
3124.512086,-861.416136,-1780.260014,-9054.440718
3124.514633,-1378.265818,-267.996131,-8863.014910
3124.517180,-861.416136,-153.140646,-9150.153622
3124.519727,-287.138712,-38.285162,-9073.583299
3124.522274,459.421939,-1473.978722,-9226.723946
3124.524821,229.710970,-267.996131,-9207.581365
3124.527368,114.855485,114.855485,-8977.870395
3124.529915,-133.998066,-344.566454,-9092.725880
3124.532462,-957.129040,-1454.836141,-9303.294269
3124.535009,-842.273555,-1875.972918,-9169.296203
3124.537556,-689.132909,-1339.980656,-8901.300072
3124.540103,325.423874,3847.658741,-8901.300072
3124.542650,421.136778,-5723.631659,-9494.720077
3124.545197,-2431.107762,3713.660675,-8748.159426
3124.547746,478.564520,-2182.254211,-9207.581365
3124.550296,-363.709035,-1512.263883,-8709.874264
3124.552845,1052.841944,976.271621,-9303.294269
3124.555395,535.992262,-3101.098090,-9303.294269
3124.557945,-287.138712,2297.109696,-9054.440718
3124.560494,1091.127106,-2986.242605,-9131.011042
3124.563044,-880.558717,995.414202,-8882.157491
3124.565594,-38.285162,-2029.113565,-9226.723946
3124.568143,-995.414202,880.558717,-9054.440718
3124.570693,-459.421939,-1167.697429,-9379.864592
3124.573242,497.707101,-267.996131,-9207.581365
3124.575792,-784.845813,287.138712,-8901.300072
3124.578342,440.279358,-1799.402595,-9188.438784
3124.580891,-57.427742,-937.986459,-9054.440718
3124.583441,-248.853550,631.705166,-8843.872330
3124.585991,-1091.127106,3522.234867,-8633.303941
3124.588540,-1818.545176,-1359.123237,-9111.868461
3124.591090,-2297.109696,516.849682,-9131.011042
3124.593639,-1818.545176,153.140646,-9379.864592
3124.596189,-459.421939,1646.261949,-8920.442653
3124.598739,-555.134843,1397.408398,-8805.587168
3124.601288,-689.132909,153.140646,-9131.011042
3124.603838,-1282.552914,-899.701298,-9035.298138
3124.606387,-746.560651,210.568389,-8997.012976
3124.608937,-1569.691626,1014.556782,-8977.870395
3124.611487,-1588.834206,2565.105827,-8901.300072
3124.614036,-1282.552914,708.275490,-9035.298138
3124.616586,-2048.256146,-937.986459,-9245.866526
3124.619136,-1091.127106,-1225.125171,-9322.436850
3124.621685,-1110.269686,1129.412267,-8901.300072
3124.624235,-172.283227,3790.230998,-9265.009107
3124.626784,-1167.697429,-4843.072942,-8786.444587
3124.629334,-1627.119368,7848.458128,-8882.157491
3124.631884,38.285162,-95.712904,-9379.864592
3124.634433,-1512.263883,-57.427742,-8882.157491
3124.636983,-727.418070,1435.693560,-8863.014910
3124.639533,-3311.666478,1320.838075,-8767.302006
3124.642082,-2297.109696,1895.115499,-9131.011042
3124.644632,-1435.693560,-1550.549045,-9207.581365
3124.647181,-823.130974,1588.834206,-9131.011042
3124.649716,842.273555,-689.132909,-9207.581365
3124.652252,-1225.125171,1741.974853,-8767.302006
3124.654787,-842.273555,937.986459,-8920.442653
3124.657322,-1875.972918,1761.117434,-8748.159426
3124.659857,-1780.260014,-612.562586,-9131.011042
3124.662392,-1416.550979,-1799.402595,-9226.723946
3124.664927,-842.273555,2986.242605,-9265.009107
3124.667462,-593.420005,-2067.398726,-9265.009107
3124.669997,-95.712904,1607.976787,-8824.729749
3124.672532,784.845813,-3483.949706,-9150.153622
3124.675067,191.425808,957.129040,-9016.155557
3124.677603,-38.285162,-1856.830338,-9226.723946
3124.680138,-1186.840010,823.130974,-8767.302006
3124.682673,-1205.982590,-344.566454,-9092.725880
3124.685208,-497.707101,-669.990328,-9150.153622
3124.687743,287.138712,-1665.404530,-9284.151688
3124.690278,727.418070,-497.707101,-9226.723946
3124.692813,-401.994197,899.701298,-8958.727814
3124.695348,-57.427742,-1148.554848,-8939.585234
3124.697883,-727.418070,363.709035,-8958.727814
3124.700418,-382.851616,-1282.552914,-9207.581365
3124.702953,516.849682,325.423874,-9207.581365
3124.705489,-842.273555,-2354.537438,-9016.155557
3124.708024,-1722.832272,4594.219392,-8958.727814
3124.710559,708.275490,-4823.930362,-9054.440718
3124.713094,-708.275490,1014.556782,-8920.442653
3124.715629,1014.556782,-1627.119368,-9418.149754
3124.718164,-478.564520,-210.568389,-9035.298138
3124.720699,1244.267752,-191.425808,-9303.294269
3124.723234,-172.283227,-1205.982590,-8882.157491
3124.725769,-650.847747,1378.265818,-8824.729749
3124.728304,-440.279358,-3273.381317,-9303.294269
3124.730839,-937.986459,1129.412267,-9016.155557
3124.733375,210.568389,-746.560651,-9303.294269
3124.735910,-306.281293,861.416136,-9073.583299
3124.738445,-210.568389,-669.990328,-9111.868461
3124.740980,153.140646,-1493.121302,-9131.011042
3124.743515,0.000000,-1359.123237,-9207.581365
3124.746050,-1454.836141,2105.683888,-8958.727814
3124.748585,-1780.260014,2373.680019,-8671.589102
3124.751125,-669.990328,-95.712904,-8958.727814
3124.753664,-1952.543242,-267.996131,-9226.723946
3124.756203,-1320.838075,-114.855485,-9360.722011
3124.758743,-631.705166,1952.543242,-8863.014910
3124.761282,-1052.841944,1301.695494,-8882.157491
3124.763822,-574.277424,-344.566454,-9092.725880
3124.766361,-1148.554848,-1225.125171,-9016.155557
3124.768900,-1129.412267,497.707101,-9054.440718
3124.771440,-1435.693560,1282.552914,-9035.298138
3124.773979,-1607.976787,2775.674216,-8901.300072
3124.776519,-1512.263883,631.705166,-9035.298138
3124.779058,-1761.117434,593.420005,-8958.727814
3124.781597,-612.562586,1071.984525,-9245.866526
3124.784137,210.568389,2373.680019,-9265.009107
3124.786676,-689.132909,1263.410333,-8843.872330
3124.789216,-306.281293,2545.963246,-8977.870395
3124.791755,-440.279358,-2373.680019,-8824.729749
3124.794294,-1627.119368,2239.681954,-9111.868461
3124.796834,-1282.552914,-1550.549045,-9265.009107
3124.799373,-2622.533570,2986.242605,-8709.874264
3124.801913,-1378.265818,1320.838075,-8939.585234
3124.804452,-2086.541307,-153.140646,-8901.300072
3124.806991,-363.709035,401.994197,-9131.011042
3124.809531,-287.138712,-382.851616,-9265.009107
3124.812070,-516.849682,1129.412267,-9016.155557
3124.814610,-765.703232,1818.545176,-8997.012976
3124.817149,-2124.826469,1607.976787,-8748.159426
3124.819688,-1531.406464,-401.994197,-8863.014910
3124.822228,-1359.123237,-1588.834206,-9111.868461
3124.824767,287.138712,2890.529701,-9265.009107
3124.827307,-95.712904,-2297.109696,-9341.579430
3124.829846,-38.285162,1416.550979,-8824.729749
3124.832389,555.134843,-3426.521963,-9016.155557
3124.834933,114.855485,937.986459,-8997.012976
3124.837476,172.283227,-1665.404530,-9245.866526
3124.840019,-612.562586,784.845813,-8958.727814
3124.842563,-1225.125171,-574.277424,-9150.153622
3124.845106,-344.566454,-765.703232,-9111.868461
3124.847649,38.285162,-1263.410333,-9226.723946
3124.850193,708.275490,-650.847747,-9245.866526
3124.852736,191.425808,497.707101,-9035.298138
3124.855280,-421.136778,-172.283227,-8843.872330
3124.857823,-1091.127106,-650.847747,-9169.296203
3124.860366,-153.140646,-1627.119368,-9245.866526
3124.862910,-1339.980656,-1914.258080,-9092.725880
3124.865453,-363.709035,-746.560651,-9111.868461
3124.867996,-669.990328,1646.261949,-8767.302006
3124.870540,-344.566454,-803.988394,-9188.438784
3124.873083,57.427742,-1339.980656,-9016.155557
3124.875626,574.277424,-669.990328,-9475.577496
3124.878170,1148.554848,-669.990328,-9188.438784
3124.880713,-440.279358,191.425808,-8939.585234
3124.883256,-133.998066,-1282.552914,-8997.012976
3124.885800,-899.701298,-1148.554848,-9035.298138
3124.888343,-38.285162,-861.416136,-9131.011042
3124.890886,-497.707101,210.568389,-9169.296203
3124.893430,-191.425808,-421.136778,-9303.294269
3124.895973,-325.423874,555.134843,-9016.155557
3124.898517,-287.138712,-2048.256146,-9092.725880
3124.901060,363.709035,-1129.412267,-9207.581365
3124.903603,-880.558717,1071.984525,-8920.442653
3124.906147,-803.988394,3005.385186,-8709.874264
3124.908690,-1320.838075,-899.701298,-8977.870395
3124.911233,-2354.537438,421.136778,-9054.440718
3124.913777,-1282.552914,-382.851616,-9303.294269
3124.916320,-823.130974,1684.547110,-8977.870395
3124.918863,-612.562586,1512.263883,-8863.014910
3124.921407,-708.275490,363.709035,-9054.440718
3124.923950,-1167.697429,-784.845813,-8997.012976
3124.926493,-1033.699363,172.283227,-9035.298138
3124.929037,-1301.695494,1473.978722,-9016.155557
3124.931580,-1033.699363,1799.402595,-8977.870395
3124.934127,-1741.974853,765.703232,-8882.157491
3124.936673,-1473.978722,459.421939,-9016.155557
3124.939220,-516.849682,-1875.972918,-9284.151688
3124.941767,-1052.841944,287.138712,-9111.868461
3124.944313,-325.423874,3177.668413,-9131.011042
3124.946860,-172.283227,-708.275490,-8863.014910
3124.949407,-1837.687757,574.277424,-8920.442653
3124.951953,-1205.982590,-823.130974,-9284.151688
3124.954500,-2507.678085,631.705166,-8824.729749
3124.957047,-1741.974853,1971.685822,-8709.874264
3124.959593,-1875.972918,-229.710970,-8939.585234
3124.962140,-1339.980656,1129.412267,-9054.440718
3124.964687,-650.847747,-1512.263883,-9226.723946
3124.967233,-650.847747,1531.406464,-8977.870395
3124.969780,-191.425808,746.560651,-9131.011042
3124.972327,-1454.836141,1990.828403,-8805.587168
3124.974873,-1627.119368,516.849682,-8843.872330
3124.977420,-2086.541307,-1684.547110,-9016.155557
3124.979967,-650.847747,1071.984525,-9284.151688
3124.982513,-516.849682,-248.853550,-9322.436850
3124.985060,708.275490,133.998066,-9111.868461
3124.987607,650.847747,-1454.836141,-8901.300072
3124.990153,0.000000,-133.998066,-9131.011042
3124.992700,-516.849682,-2086.541307,-9111.868461
3124.995246,-1225.125171,267.996131,-8939.585234
3124.997793,-248.853550,133.998066,-9169.296203
3125.000340,-765.703232,-689.132909,-9073.583299
3125.002886,76.570323,-1416.550979,-9073.583299
3125.005433,421.136778,-1033.699363,-9169.296203
3125.007980,-133.998066,-421.136778,-9150.153622
3125.010526,172.283227,191.425808,-9111.868461
3125.013073,-535.992262,-555.134843,-9016.155557
3125.015620,-555.134843,497.707101,-9016.155557
3125.018166,421.136778,-1627.119368,-9054.440718
3125.020713,-918.843878,267.996131,-9111.868461
3125.023260,-306.281293,325.423874,-9150.153622
3125.025806,-612.562586,-1684.547110,-8997.012976
3125.028353,-421.136778,-631.705166,-9054.440718
3125.030900,19.142581,-2947.957443,-9322.436850
3125.033446,57.427742,957.129040,-9150.153622
3125.035996,1301.695494,-1301.695494,-9131.011042
3125.038546,-593.420005,-650.847747,-8805.587168
3125.041095,-38.285162,-1665.404530,-9111.868461
3125.043645,-1129.412267,-421.136778,-9111.868461
3125.046195,-191.425808,-382.851616,-9131.011042
3125.048744,-38.285162,-95.712904,-9131.011042
3125.051294,-823.130974,-153.140646,-8997.012976
3125.053844,478.564520,-2029.113565,-9245.866526
3125.056394,-114.855485,-76.570323,-9092.725880
3125.058943,-1895.115499,1741.974853,-9054.440718
3125.061493,-1703.689691,1971.685822,-8805.587168
3125.064043,-842.273555,95.712904,-9073.583299
3125.066592,-1875.972918,-38.285162,-9188.438784
3125.069142,-1933.400661,76.570323,-9131.011042
3125.071692,-880.558717,1052.841944,-8977.870395
3125.074241,-1110.269686,1493.121302,-9111.868461
3125.076791,-631.705166,-248.853550,-9150.153622
3125.079341,-1091.127106,-1129.412267,-8997.012976
3125.081890,-1301.695494,708.275490,-8977.870395
3125.084440,-1167.697429,1761.117434,-8977.870395
3125.086990,-1301.695494,1990.828403,-8709.874264
3125.089539,-1454.836141,593.420005,-9016.155557
3125.092089,-1225.125171,-38.285162,-9245.866526
3125.094639,-229.710970,-1339.980656,-9188.438784
3125.097189,-555.134843,593.420005,-9111.868461
3125.099738,-1397.408398,1684.547110,-8939.585234
3125.102288,-880.558717,1110.269686,-9073.583299
3125.104838,-880.558717,631.705166,-9016.155557
3125.107387,-1856.830338,593.420005,-8958.727814
3125.109937,-1971.685822,1071.984525,-8843.872330
3125.112487,-2067.398726,1071.984525,-9035.298138
3125.115036,-1378.265818,344.566454,-9322.436850
3125.117586,-593.420005,382.851616,-9169.296203
3125.120136,-555.134843,133.998066,-8977.870395
3125.122685,-497.707101,1531.406464,-9016.155557
3125.125235,-1014.556782,1110.269686,-9054.440718
3125.127785,-1856.830338,631.705166,-8863.014910
3125.130335,-1952.543242,-1914.258080,-9073.583299
3125.132884,-918.843878,2067.398726,-9207.581365
3125.135434,-746.560651,-1741.974853,-9226.723946
3125.137986,593.420005,727.418070,-9073.583299
3125.140539,746.560651,-2163.111630,-9073.583299
3125.143091,114.855485,38.285162,-9131.011042
3125.145644,-382.851616,-1665.404530,-8939.585234
3125.148196,-1186.840010,133.998066,-8977.870395
3125.150749,-459.421939,-172.283227,-9303.294269
3125.153301,-382.851616,-708.275490,-9131.011042
3125.155854,-57.427742,-1512.263883,-9188.438784
3125.158407,210.568389,-1033.699363,-9150.153622
3125.160959,-114.855485,19.142581,-9169.296203
3125.163512,153.140646,-899.701298,-9303.294269
3125.166064,-574.277424,19.142581,-8997.012976
3125.168617,287.138712,-1914.258080,-9188.438784
3125.171169,-1990.828403,-3101.098090,-9073.583299
3125.173722,-1205.982590,3885.943902,-9111.868461
3125.176274,880.558717,-3771.088418,-9111.868461
3125.178827,-1148.554848,1780.260014,-8939.585234
3125.181379,957.129040,-3732.803256,-9245.866526
3125.183932,-650.847747,-1493.121302,-9207.581365
3125.186484,957.129040,995.414202,-9226.723946
3125.189037,478.564520,-2297.109696,-9207.581365
3125.191589,95.712904,153.140646,-8863.014910
3125.194142,-382.851616,-2105.683888,-9207.581365
3125.196694,-1359.123237,1129.412267,-8977.870395
3125.199247,248.853550,-1263.410333,-9207.581365
3125.201799,-1052.841944,1148.554848,-9035.298138
3125.204352,191.425808,-1722.832272,-9226.723946
3125.206904,899.701298,-248.853550,-8977.870395
3125.209457,-1722.832272,1282.552914,-9016.155557
3125.212009,-995.414202,1550.549045,-8786.444587
3125.214562,-708.275490,535.992262,-8939.585234
3125.217114,-1818.545176,-229.710970,-9265.009107
3125.219667,-2335.394858,133.998066,-9265.009107
3125.222219,-1071.984525,669.990328,-8882.157491
3125.224772,-995.414202,1875.972918,-8958.727814
3125.227324,-593.420005,-114.855485,-9188.438784
3125.229877,-1033.699363,-631.705166,-8997.012976
3125.232429,-803.988394,229.710970,-9073.583299
3125.234982,-1320.838075,1550.549045,-9073.583299
3125.237534,-1397.408398,1933.400661,-8882.157491
3125.240090,-1435.693560,842.273555,-8939.585234
3125.242645,-2450.250342,-2067.398726,-9169.296203
3125.245200,-440.279358,2699.103893,-9131.011042
3125.247755,669.990328,1895.115499,-8958.727814
3125.250310,-440.279358,1339.980656,-9054.440718
3125.252865,-1837.687757,95.712904,-8901.300072
3125.255420,-1301.695494,574.277424,-9035.298138
3125.257975,-2373.680019,57.427742,-9226.723946
3125.260530,-2316.252277,1493.121302,-8786.444587
3125.263085,-1167.697429,669.990328,-9035.298138
3125.265641,-1091.127106,899.701298,-9035.298138
3125.268196,-325.423874,363.709035,-9150.153622
3125.270751,-899.701298,440.279358,-8977.870395
3125.273306,-918.843878,1071.984525,-9073.583299
3125.275861,-1416.550979,1014.556782,-8997.012976
3125.278416,-1703.689691,306.281293,-8958.727814
3125.280971,-995.414202,-1665.404530,-9265.009107
3125.283526,-172.283227,2679.961312,-8958.727814
3125.286081,133.998066,-3081.955509,-9207.581365
3125.288637,478.564520,1052.841944,-8958.727814
3125.291192,689.132909,-1722.832272,-9322.436850
3125.293747,-421.136778,-803.988394,-9035.298138
3125.296302,-191.425808,-325.423874,-8920.442653
3125.298857,-363.709035,-76.570323,-8958.727814
3125.301412,-727.418070,-669.990328,-9092.725880
3125.303967,133.998066,-1435.693560,-9226.723946
3125.306522,-229.710970,-784.845813,-9111.868461
3125.309077,574.277424,-363.709035,-9169.296203
3125.311632,0.000000,191.425808,-9092.725880
3125.314188,19.142581,-708.275490,-9073.583299
3125.316743,-1148.554848,1110.269686,-9054.440718
3125.319298,325.423874,210.568389,-9092.725880
3125.321853,153.140646,-1339.980656,-8997.012976
3125.324408,-1320.838075,2526.820666,-8997.012976
3125.326963,650.847747,-2124.826469,-9035.298138
3125.329518,-669.990328,440.279358,-8824.729749
3125.332073,937.986459,-1914.258080,-9437.292334
3125.334628,401.994197,-267.996131,-9092.725880
3125.337184,1205.982590,-957.129040,-9035.298138
3125.339739,-19.142581,-1339.980656,-9073.583299
3125.342296,-306.281293,382.851616,-9035.298138
3125.344853,-631.705166,-1646.261949,-9131.011042
3125.347410,-880.558717,765.703232,-9131.011042
3125.349967,-842.273555,-957.129040,-9188.438784
3125.352524,19.142581,-574.277424,-9188.438784
3125.355081,976.271621,-1435.693560,-9226.723946
3125.357638,-1856.830338,2488.535504,-8920.442653
3125.360195,-1741.974853,899.701298,-8863.014910
3125.362752,-918.843878,325.423874,-9035.298138
3125.365309,-1741.974853,-153.140646,-9265.009107
3125.367866,-1607.976787,306.281293,-9111.868461
3125.370423,-1493.121302,1761.117434,-8805.587168
3125.372980,-1282.552914,1244.267752,-8863.014910
3125.375537,-727.418070,727.418070,-9131.011042
3125.378094,-746.560651,-899.701298,-9111.868461
3125.380651,-1091.127106,669.990328,-9016.155557
3125.383208,-1397.408398,1052.841944,-9073.583299
3125.385765,-1071.984525,1780.260014,-8824.729749
3125.388322,-2526.820666,-1014.556782,-9303.294269
3125.390879,-2124.826469,1818.545176,-9054.440718
3125.393436,937.986459,-689.132909,-9360.722011
3125.395993,-95.712904,1607.976787,-8882.157491
3125.398550,-803.988394,899.701298,-8786.444587
3125.401107,-1856.830338,1493.121302,-8786.444587
3125.403665,-2067.398726,-57.427742,-9073.583299
3125.406222,-2220.539373,574.277424,-8977.870395
3125.408779,-1531.406464,306.281293,-8939.585234
3125.411336,-1684.547110,823.130974,-8977.870395
3125.413893,-593.420005,1110.269686,-9131.011042
3125.416450,-574.277424,-248.853550,-9111.868461
3125.419007,-1282.552914,1301.695494,-8863.014910
3125.421564,-1071.984525,306.281293,-9207.581365
3125.424121,-1741.974853,535.992262,-8997.012976
3125.426678,-1359.123237,-1799.402595,-9054.440718
3125.429235,-746.560651,3177.668413,-9092.725880
3125.431792,-1186.840010,-2794.816797,-9245.866526
3125.434349,574.277424,1148.554848,-8977.870395
3125.436906,650.847747,-2890.529701,-9379.864592
3125.439463,-57.427742,76.570323,-9150.153622
3125.442020,248.853550,-382.851616,-8901.300072
3125.444580,-1110.269686,-133.998066,-8843.872330
3125.447139,-727.418070,-574.277424,-9303.294269
3125.449698,-287.138712,-1205.982590,-9245.866526
3125.452257,-229.710970,-1339.980656,-9226.723946
3125.454816,478.564520,-995.414202,-9169.296203
3125.457374,0.000000,363.709035,-9169.296203
3125.459933,382.851616,-153.140646,-8977.870395
3125.462492,-574.277424,-229.710970,-9226.723946
3125.465051,-689.132909,-2737.389054,-9054.440718
3125.467610,-650.847747,-401.994197,-8977.870395
3125.470169,-727.418070,-2584.248408,-9341.579430
3125.472728,-1473.978722,76.570323,-9016.155557
3125.475287,497.707101,-1435.693560,-8977.870395
3125.477846,267.996131,-1225.125171,-9131.011042
3125.480405,1091.127106,-1167.697429,-9360.722011
3125.482964,229.710970,-746.560651,-9073.583299
3125.485523,440.279358,-363.709035,-9016.155557
3125.488082,-631.705166,-957.129040,-8997.012976
3125.490641,-574.277424,-574.277424,-9092.725880
3125.493199,-823.130974,-287.138712,-9150.153622
3125.495758,-899.701298,-555.134843,-9131.011042
3125.498317,497.707101,-1263.410333,-9303.294269
3125.500876,114.855485,153.140646,-9054.440718
3125.503435,-1435.693560,2775.674216,-8843.872330
3125.505994,-2124.826469,-248.853550,-8863.014910
3125.508553,-1378.265818,727.418070,-9073.583299
3125.511112,-1339.980656,-287.138712,-9303.294269
3125.513671,-1301.695494,2029.113565,-8920.442653
3125.516230,-1186.840010,1320.838075,-8786.444587
3125.518789,-1416.550979,880.558717,-8997.012976
3125.521348,-478.564520,-267.996131,-9188.438784
3125.523907,-976.271621,-555.134843,-8997.012976
3125.526466,-1110.269686,1033.699363,-9073.583299
3125.529024,-1186.840010,1761.117434,-8824.729749
3125.531583,-1550.549045,2182.254211,-8882.157491
3125.534142,-1110.269686,-1282.552914,-9341.579430
3125.536701,-2277.967115,-344.566454,-9322.436850
3125.539260,287.138712,976.271621,-9303.294269
3125.541819,-727.418070,-995.414202,-8977.870395
3125.544378,-1741.974853,2660.818731,-8997.012976
3125.546922,-1569.691626,-861.416136,-9092.725880
3125.549465,-3024.527766,784.845813,-8901.300072
3125.552009,-1531.406464,478.564520,-9111.868461
3125.554553,-1473.978722,267.996131,-8939.585234
3125.557096,-669.990328,1703.689691,-9111.868461
3125.559640,-1205.982590,-861.416136,-9284.151688
3125.562183,-957.129040,2354.537438,-8920.442653
3125.564727,-899.701298,-937.986459,-9131.011042
3125.567271,-1703.689691,1741.974853,-8997.012976
3125.569814,-861.416136,-1607.976787,-9169.296203
3125.572358,-880.558717,3254.238736,-9035.298138
3125.574902,-765.703232,-2871.387120,-9188.438784
3125.577445,267.996131,1148.554848,-8977.870395
3125.579989,497.707101,-2947.957443,-9322.436850
3125.582532,555.134843,133.998066,-9188.438784
3125.585076,76.570323,-708.275490,-8977.870395
3125.587620,-574.277424,-325.423874,-8958.727814
3125.590163,-1186.840010,-363.709035,-9150.153622
3125.592707,-172.283227,-1741.974853,-9284.151688
3125.595251,-172.283227,-1110.269686,-9226.723946
3125.597794,267.996131,-918.843878,-9265.009107
3125.600338,287.138712,-210.568389,-9226.723946
3125.602881,-95.712904,-133.998066,-9111.868461
3125.605425,-669.990328,-2029.113565,-9111.868461
3125.607969,-1378.265818,-1244.267752,-8977.870395
3125.610512,0.000000,382.851616,-9188.438784
3125.613056,-746.560651,-191.425808,-9150.153622
3125.615600,-459.421939,-937.986459,-8939.585234
3125.618143,76.570323,-1435.693560,-9092.725880
3125.620687,612.562586,-1684.547110,-9322.436850
3125.623230,746.560651,-497.707101,-9456.434915
3125.625774,669.990328,-1225.125171,-9188.438784
3125.628318,-440.279358,-689.132909,-8997.012976
3125.630861,-842.273555,-497.707101,-9073.583299
3125.633405,-574.277424,-421.136778,-9188.438784
3125.635949,-880.558717,229.710970,-9016.155557
3125.638492,-76.570323,-1761.117434,-9169.296203
3125.641036,421.136778,-516.849682,-9226.723946
3125.643579,-401.994197,842.273555,-8977.870395
3125.646123,-1722.832272,612.562586,-8729.016845
3125.648670,-631.705166,746.560651,-8939.585234
3125.651218,-1933.400661,95.712904,-9131.011042
3125.653765,-2201.396792,248.853550,-9226.723946
3125.656312,-1052.841944,1339.980656,-8901.300072
3125.658859,-1416.550979,2201.396792,-8920.442653
3125.661406,-765.703232,382.851616,-9111.868461
3125.663954,-727.418070,-267.996131,-8997.012976
3125.666501,-976.271621,-669.990328,-9169.296203
3125.669048,-1493.121302,1952.543242,-9054.440718
3125.671595,-899.701298,1359.123237,-8805.587168
3125.674143,-2201.396792,2143.969050,-8805.587168
3125.676690,-478.564520,325.423874,-9226.723946
3125.679237,229.710970,-38.285162,-9092.725880
3125.681784,-344.566454,-612.562586,-9207.581365
3125.684332,-1493.121302,57.427742,-9035.298138
3125.686879,-1914.258080,2431.107762,-8690.731683
3125.689426,-2048.256146,-401.994197,-9073.583299
3125.691973,-2431.107762,1397.408398,-9092.725880
3125.694521,-957.129040,-114.855485,-9092.725880
3125.697068,-1301.695494,2201.396792,-8920.442653
3125.699615,-765.703232,-478.564520,-9150.153622
3125.702162,-1205.982590,2450.250342,-8939.585234
3125.704709,-1110.269686,689.132909,-9035.298138
3125.707257,-1569.691626,-1071.984525,-8997.012976
3125.709804,-1225.125171,-38.285162,-9073.583299
3125.712351,-210.568389,2622.533570,-9073.583299
3125.714898,-1148.554848,-1875.972918,-9035.298138
3125.717446,76.570323,267.996131,-8997.012976
3125.719993,172.283227,-2507.678085,-9303.294269
3125.722540,-191.425808,-497.707101,-9207.581365
3125.725087,401.994197,-287.138712,-8977.870395
3125.727635,-535.992262,95.712904,-8824.729749
3125.730182,-823.130974,-363.709035,-9169.296203
3125.732729,-555.134843,-2029.113565,-9265.009107
3125.735276,-344.566454,-1091.127106,-9265.009107
3125.737824,401.994197,-363.709035,-9226.723946
3125.740371,248.853550,210.568389,-8958.727814
3125.742918,229.710970,535.992262,-9035.298138
3125.745465,-593.420005,-1875.972918,-9150.153622
3125.748012,-1722.832272,-1033.699363,-9016.155557
3125.750563,440.279358,-650.847747,-9360.722011
3125.753113,-421.136778,-899.701298,-9016.155557
3125.755664,-746.560651,153.140646,-8863.014910
3125.758214,344.566454,-1933.400661,-8977.870395
3125.760765,593.420005,-555.134843,-9399.007173
3125.763315,1339.980656,-2067.398726,-9360.722011
3125.765866,57.427742,382.851616,-8824.729749
3125.768416,-76.570323,-421.136778,-8939.585234
3125.770967,-1205.982590,-631.705166,-9016.155557
3125.773517,-574.277424,-555.134843,-9035.298138
3125.776068,-937.986459,-918.843878,-9188.438784
3125.778618,382.851616,-689.132909,-9226.723946
3125.781169,401.994197,-114.855485,-9092.725880
3125.783719,-1014.556782,3024.527766,-8748.159426
3125.786270,-1837.687757,-1416.550979,-9035.298138
3125.788820,-2009.970984,842.273555,-9016.155557
3125.791371,-1454.836141,-516.849682,-9207.581365
3125.793921,-1263.410333,2277.967115,-8939.585234
3125.796472,-1167.697429,1359.123237,-8901.300072
3125.799022,-1167.697429,191.425808,-9092.725880
3125.801573,-631.705166,-95.712904,-9131.011042
3125.804123,-784.845813,-708.275490,-9092.725880
3125.806674,-1263.410333,1531.406464,-8939.585234
3125.809224,-1512.263883,1454.836141,-8958.727814
3125.811775,-995.414202,2373.680019,-8709.874264
3125.814325,-1837.687757,-3235.096155,-9188.438784
3125.816876,-1741.974853,5206.781978,-9054.440718
3125.819426,1033.699363,2163.111630,-9245.866526
3125.821977,-1627.119368,-2871.387120,-8805.587168
3125.824527,-1244.267752,4555.934230,-8901.300072
3125.827078,-2699.103893,-1186.840010,-8977.870395
3125.829628,-3139.383251,2373.680019,-9111.868461
3125.832179,-401.994197,-1378.265818,-9207.581365
3125.834729,-2143.969050,2986.242605,-8843.872330
3125.837280,0.000000,1684.547110,-9092.725880
3125.839830,-1665.404530,746.560651,-8920.442653
3125.842381,-937.986459,861.416136,-9111.868461
3125.844931,-918.843878,-1473.978722,-9111.868461
3125.847482,-1378.265818,-267.996131,-9035.298138
3125.850032,459.421939,3005.385186,-9169.296203
3125.852569,-1761.117434,-2009.970984,-8843.872330
3125.855105,440.279358,95.712904,-9035.298138
3125.857642,593.420005,-2373.680019,-9379.864592
3125.860178,-229.710970,-497.707101,-9265.009107
3125.862715,574.277424,-38.285162,-9016.155557
3125.865252,-593.420005,-153.140646,-8805.587168
3125.867788,-497.707101,-287.138712,-9188.438784
3125.870325,-823.130974,-1741.974853,-9226.723946
3125.872861,-363.709035,-1244.267752,-9169.296203
3125.875398,210.568389,-306.281293,-9341.579430
3125.877934,478.564520,382.851616,-8824.729749
3125.880471,-363.709035,555.134843,-8977.870395
3125.883007,-574.277424,-689.132909,-8997.012976
3125.885544,-1014.556782,-1703.689691,-8939.585234
3125.888081,-727.418070,1588.834206,-9150.153622
3125.890617,784.845813,-995.414202,-9131.011042
3125.893154,-535.992262,-248.853550,-8939.585234
3125.895690,784.845813,-1512.263883,-9245.866526
3125.898227,861.416136,-1914.258080,-9341.579430
3125.900763,1052.841944,-401.994197,-9341.579430
3125.903300,38.285162,-803.988394,-9073.583299
3125.905836,-650.847747,344.566454,-8901.300072
3125.908373,-784.845813,-306.281293,-8997.012976
3125.910910,-1512.263883,-325.423874,-8939.585234
3125.913446,612.562586,-1167.697429,-9245.866526
3125.915983,440.279358,-401.994197,-9265.009107
3125.918519,-1378.265818,3024.527766,-9016.155557
3125.921056,-1741.974853,344.566454,-8729.016845
3125.923592,-937.986459,765.703232,-8958.727814
3125.926129,-1703.689691,-612.562586,-9207.581365
3125.928665,-2182.254211,535.992262,-9226.723946
3125.931202,-1244.267752,1550.549045,-8939.585234
3125.933739,-1818.545176,2545.963246,-8939.585234
3125.936275,-267.996131,-784.845813,-9131.011042
3125.938812,-861.416136,-287.138712,-8997.012976
3125.941348,-995.414202,-516.849682,-9303.294269
3125.943885,-1282.552914,1186.840010,-9073.583299
3125.946421,-1607.976787,957.129040,-8958.727814
3125.948958,-2967.100024,1512.263883,-8997.012976
3125.951494,-38.285162,-287.138712,-9245.866526
3125.954036,650.847747,861.416136,-8977.870395
3125.956577,-1435.693560,382.851616,-8939.585234
3125.959119,-1646.261949,2086.541307,-8977.870395
3125.961660,-2124.826469,1091.127106,-8958.727814
3125.964201,-2813.959378,-19.142581,-9092.725880
3125.966743,-1761.117434,-344.566454,-9131.011042
3125.969284,-1205.982590,899.701298,-8882.157491
3125.971826,-631.705166,2526.820666,-9092.725880
3125.974367,-1263.410333,1244.267752,-8939.585234
3125.976908,-1014.556782,76.570323,-8901.300072
3125.979450,-1416.550979,-1607.976787,-9073.583299
3125.981991,-784.845813,-765.703232,-9284.151688
3125.984533,76.570323,3273.381317,-9054.440718
3125.987074,-1397.408398,-2297.109696,-9073.583299
3125.989615,-38.285162,-267.996131,-8901.300072
3125.992157,344.566454,-2335.394858,-9379.864592
3125.994698,-76.570323,-1091.127106,-9341.579430
3125.997239,497.707101,-38.285162,-9092.725880
3125.999781,-229.710970,-191.425808,-8882.157491
3126.002322,-957.129040,-593.420005,-9073.583299
3126.004864,-516.849682,-1875.972918,-9265.009107
3126.007405,-516.849682,-861.416136,-9226.723946
3126.009946,210.568389,-459.421939,-9303.294269
3126.012488,-229.710970,-957.129040,-9188.438784
3126.015029,-1110.269686,-631.705166,-8882.157491
3126.017571,-765.703232,650.847747,-9016.155557
3126.020112,38.285162,-2469.392923,-9265.009107
3126.022653,-669.990328,-210.568389,-9150.153622
3126.025195,-172.283227,708.275490,-9245.866526
3126.027736,-95.712904,-1856.830338,-9188.438784
3126.030278,19.142581,-1129.412267,-9131.011042
3126.032819,1473.978722,-2756.531635,-9475.577496
3126.035365,248.853550,-555.134843,-9207.581365
3126.037911,287.138712,19.142581,-9092.725880
3126.040456,-1052.841944,-650.847747,-9016.155557
3126.043002,-957.129040,535.992262,-8920.442653
3126.045548,-937.986459,-2124.826469,-9092.725880
3126.048094,267.996131,-191.425808,-9226.723946
3126.050640,95.712904,535.992262,-9226.723946
3126.053185,-765.703232,2947.957443,-8729.016845
3126.055731,-1071.984525,-535.992262,-8920.442653
3126.058277,-2239.681954,229.710970,-9073.583299
3126.060823,-1952.543242,-153.140646,-9265.009107
3126.063369,-957.129040,1320.838075,-8958.727814
3126.065914,-1263.410333,2909.672282,-8843.872330
3126.068460,-1014.556782,-287.138712,-9150.153622
3126.071006,-1110.269686,153.140646,-9016.155557
3126.073552,-497.707101,-555.134843,-9111.868461
3126.076098,-1301.695494,1531.406464,-8843.872330
3126.078643,-1646.261949,401.994197,-9092.725880
3126.081189,-2009.970984,3235.096155,-8633.303941
3126.083735,-535.992262,-153.140646,-9169.296203
3126.086281,631.705166,-133.998066,-9111.868461
3126.088827,-1339.980656,153.140646,-9035.298138
3126.091372,-1512.263883,1741.974853,-8901.300072
3126.093918,-2086.541307,1205.982590,-8977.870395
3126.096464,-2775.674216,650.847747,-9035.298138
3126.099010,-1780.260014,-516.849682,-9111.868461
3126.101556,-1875.972918,784.845813,-9054.440718
3126.104101,-899.701298,2871.387120,-9150.153622
3126.106647,-1014.556782,842.273555,-9150.153622
3126.109193,-899.701298,880.558717,-8786.444587
3126.111739,-1435.693560,-2316.252277,-9016.155557
3126.114285,-880.558717,-153.140646,-9245.866526
3126.116830,19.142581,2641.676150,-9169.296203
3126.119376,-1071.984525,-2392.822600,-8958.727814
3126.121922,133.998066,1186.840010,-8863.014910
3126.124468,172.283227,-3024.527766,-9322.436850
3126.127014,38.285162,-19.142581,-9131.011042
3126.129559,497.707101,-344.566454,-9169.296203
3126.132105,-57.427742,-325.423874,-8863.014910
3126.134651,-631.705166,-497.707101,-9226.723946
3126.137200,-535.992262,-1780.260014,-9092.725880
3126.139750,-727.418070,-1167.697429,-9111.868461
3126.142299,153.140646,-497.707101,-9322.436850
3126.144849,746.560651,-267.996131,-9150.153622
3126.147398,-803.988394,-1818.545176,-8958.727814
3126.149947,-1531.406464,382.851616,-8824.729749
3126.152497,-191.425808,516.849682,-9054.440718
3126.155046,421.136778,-2067.398726,-9284.151688
3126.157596,0.000000,19.142581,-9150.153622
3126.160145,229.710970,-1033.699363,-9226.723946
3126.162694,344.566454,-1473.978722,-8977.870395
3126.165244,669.990328,-1225.125171,-9188.438784
3126.167793,650.847747,-1588.834206,-9188.438784
3126.170343,-38.285162,478.564520,-8977.870395
3126.172892,-995.414202,-19.142581,-9016.155557
3126.175441,-1588.834206,-133.998066,-8920.442653
3126.177991,-114.855485,-1799.402595,-9150.153622
3126.180540,363.709035,-421.136778,-9245.866526
3126.183090,-1071.984525,3483.949706,-9054.440718
3126.185639,-1799.402595,-516.849682,-8939.585234
3126.188188,-1148.554848,1148.554848,-8939.585234
3126.190738,-1397.408398,-459.421939,-9150.153622
3126.193287,-2105.683888,612.562586,-9054.440718
3126.195837,-1244.267752,1569.691626,-8939.585234
3126.198386,-1684.547110,2488.535504,-8901.300072
3126.200935,-535.992262,1014.556782,-8997.012976
3126.203485,-535.992262,-1148.554848,-9092.725880
3126.206034,-1512.263883,38.285162,-9303.294269
3126.208584,-535.992262,1588.834206,-8863.014910
3126.211133,-1454.836141,3732.803256,-8786.444587
3126.213682,-1493.121302,-1167.697429,-9111.868461
3126.216232,-918.843878,-478.564520,-9207.581365
3126.218781,-1033.699363,76.570323,-8939.585234
3126.221331,-1684.547110,2392.822600,-8863.014910
3126.223880,-1665.404530,1550.549045,-8863.014910
3126.226429,-2354.537438,1282.552914,-8939.585234
3126.228979,-1971.685822,-57.427742,-8977.870395
3126.231528,-2297.109696,880.558717,-8939.585234
3126.234078,-1071.984525,1416.550979,-9131.011042
3126.236627,-880.558717,2124.826469,-9111.868461
3126.239180,-401.994197,1129.412267,-8958.727814
3126.241733,-1473.978722,-2029.113565,-8920.442653
3126.244285,-1129.412267,-191.425808,-9207.581365
3126.246838,0.000000,2373.680019,-9207.581365
3126.249391,-784.845813,-2277.967115,-9016.155557
3126.251944,19.142581,957.129040,-8882.157491
3126.254496,-325.423874,-2699.103893,-9226.723946
3126.257049,287.138712,957.129040,-9188.438784
3126.259602,287.138712,-937.986459,-9131.011042
3126.262155,76.570323,-574.277424,-9073.583299
3126.264708,-459.421939,-765.703232,-9169.296203
3126.267260,-497.707101,-1990.828403,-9150.153622
3126.269813,-516.849682,-133.998066,-9073.583299
3126.272366,19.142581,-899.701298,-9207.581365
3126.274919,555.134843,708.275490,-9226.723946
3126.277471,114.855485,-2392.822600,-9226.723946
3126.280024,-1722.832272,-1780.260014,-8863.014910
3126.282577,-1914.258080,842.273555,-9131.011042
3126.285130,803.988394,-1129.412267,-9188.438784
3126.287683,306.281293,-172.283227,-9188.438784
3126.290235,1091.127106,-1722.832272,-9150.153622
3126.292788,248.853550,-497.707101,-9092.725880
3126.295341,555.134843,-1301.695494,-9131.011042
3126.297894,57.427742,-210.568389,-9188.438784
3126.300446,95.712904,-708.275490,-9035.298138
3126.302999,-957.129040,746.560651,-8939.585234
3126.305552,-1014.556782,-1473.978722,-8997.012976
3126.308105,153.140646,-1588.834206,-9207.581365
3126.310657,-133.998066,363.709035,-9111.868461
3126.313210,-727.418070,2373.680019,-8977.870395
3126.315763,-842.273555,-38.285162,-8920.442653
3126.318316,-1799.402595,-306.281293,-9016.155557
3126.320869,-1933.400661,-19.142581,-9131.011042
3126.323421,-1359.123237,1435.693560,-8939.585234
3126.325974,-1301.695494,2488.535504,-8920.442653
3126.328527,-1646.261949,727.418070,-9054.440718
3126.331080,-593.420005,574.277424,-8939.585234
3126.333632,-708.275490,-133.998066,-8920.442653
3126.336185,-1454.836141,1129.412267,-9188.438784
3126.338738,-363.709035,1971.685822,-8882.157491
3126.341277,-2488.535504,478.564520,-8863.014910
3126.343816,-516.849682,267.996131,-9169.296203
3126.346355,-172.283227,803.988394,-9092.725880
3126.348894,-1244.267752,-38.285162,-8997.012976
3126.351433,-1378.265818,2258.824534,-8767.302006
3126.353972,-2048.256146,1416.550979,-9035.298138
3126.356510,-2488.535504,516.849682,-8939.585234
3126.359049,-2411.965181,765.703232,-8997.012976
3126.361588,-1301.695494,363.709035,-9054.440718
3126.364127,-1186.840010,2928.814862,-9111.868461
3126.366666,-516.849682,631.705166,-9092.725880
3126.369205,-1263.410333,229.710970,-8997.012976
3126.371744,-1033.699363,-1397.408398,-9150.153622
3126.374283,459.421939,3062.812928,-9092.725880
3126.376822,-650.847747,-2545.963246,-9016.155557
3126.379361,-287.138712,1512.263883,-8882.157491
3126.381900,-382.851616,-2756.531635,-9169.296203
3126.384439,133.998066,363.709035,-9245.866526
3126.386977,440.279358,-1359.123237,-9169.296203
3126.389516,-210.568389,-306.281293,-9073.583299
3126.392055,-38.285162,-114.855485,-9131.011042
3126.394594,-325.423874,-1990.828403,-9265.009107
3126.397133,-401.994197,-478.564520,-8939.585234
3126.399672,0.000000,-267.996131,-8977.870395
3126.402211,689.132909,1722.832272,-8824.729749
3126.404750,287.138712,-2277.967115,-9303.294269
3126.407289,-2297.109696,-459.421939,-8920.442653
3126.409828,-1895.115499,421.136778,-9054.440718
3126.412367,746.560651,-1416.550979,-9245.866526
3126.414906,210.568389,19.142581,-9226.723946
3126.417445,1512.263883,-1875.972918,-9284.151688
3126.419983,191.425808,-133.998066,-9092.725880
3126.422522,669.990328,-2163.111630,-9322.436850
3126.425061,-172.283227,-210.568389,-9073.583299
3126.427600,382.851616,-650.847747,-9131.011042
3126.430139,-1186.840010,-823.130974,-9073.583299
3126.432678,-555.134843,-363.709035,-9035.298138
3126.435217,593.420005,-1722.832272,-9131.011042
3126.437756,-1263.410333,1856.830338,-9073.583299
3126.440295,-880.558717,1741.974853,-8958.727814
3126.442839,-803.988394,306.281293,-8997.012976
3126.445383,-1320.838075,-229.710970,-9150.153622
3126.447927,-1875.972918,-76.570323,-9111.868461
3126.450471,-1320.838075,1818.545176,-8767.302006
3126.453014,-1435.693560,2469.392923,-9035.298138
3126.455558,-1454.836141,421.136778,-9131.011042
3126.458102,-842.273555,-497.707101,-8997.012976
3126.460645,-1110.269686,-210.568389,-9073.583299
3126.463189,-1148.554848,880.558717,-8958.727814
3126.465733,-1320.838075,3426.521963,-8901.300072
3126.468277,-114.855485,4441.078746,-9092.725880
3126.470820,-401.994197,-5666.203917,-9207.581365
3126.473364,-1741.974853,5685.346498,-9035.298138
3126.475908,-1091.127106,-2009.970984,-9092.725880
3126.478451,-2354.537438,4709.074877,-8729.016845
3126.480995,-229.710970,-1091.127106,-9016.155557
3126.483539,-3560.520029,2105.683888,-8633.303941
3126.486083,-2220.539373,1627.119368,-9169.296203
3126.488626,-1646.261949,803.988394,-9169.296203
3126.491170,-765.703232,1646.261949,-8901.300072
3126.493714,-267.996131,-325.423874,-9131.011042
3126.496257,-1378.265818,-191.425808,-8958.727814
3126.498801,363.709035,-248.853550,-9265.009107
3126.501345,-2143.969050,306.281293,-9016.155557
3126.503889,38.285162,-1052.841944,-9092.725880
3126.506432,-57.427742,-2565.105827,-9092.725880
3126.508976,-57.427742,516.849682,-9265.009107
3126.511520,306.281293,-1493.121302,-9150.153622
3126.514063,-363.709035,267.996131,-8882.157491
3126.516607,574.277424,-957.129040,-9303.294269
3126.519151,-478.564520,-1722.832272,-9207.581365
3126.521695,421.136778,-1167.697429,-9131.011042
3126.524238,-172.283227,-76.570323,-8958.727814
3126.526782,57.427742,1627.119368,-8748.159426
3126.529326,957.129040,-2067.398726,-9245.866526
3126.531869,-2392.822600,-823.130974,-9054.440718
3126.534413,95.712904,478.564520,-9226.723946
3126.536957,-631.705166,-3024.527766,-9092.725880
3126.539501,229.710970,382.851616,-9169.296203
3126.542044,306.281293,-2201.396792,-9226.723946
3126.544592,631.705166,363.709035,-8939.585234
3126.547141,1301.695494,-2297.109696,-9360.722011
3126.549689,-478.564520,-172.283227,-9073.583299
3126.552237,382.851616,-1033.699363,-9188.438784
3126.554785,-1722.832272,918.843878,-8939.585234
3126.557333,-325.423874,-2201.396792,-9169.296203
3126.559882,133.998066,-382.851616,-9169.296203
3126.562430,-765.703232,114.855485,-9054.440718
3126.564978,-1244.267752,1186.840010,-8863.014910
3126.567526,-631.705166,516.849682,-8958.727814
3126.570074,-1397.408398,-210.568389,-9188.438784
3126.572622,-2067.398726,0.000000,-9131.011042
3126.575171,-1110.269686,1397.408398,-8824.729749
3126.577719,-1320.838075,2545.963246,-8882.157491
3126.580267,-1320.838075,478.564520,-9054.440718
3126.582815,-937.986459,-995.414202,-8958.727814
3126.585363,-1244.267752,-306.281293,-9073.583299
3126.587911,-1473.978722,803.988394,-9207.581365
3126.590460,-1512.263883,-803.988394,-9035.298138
3126.593008,-1971.685822,2526.820666,-9016.155557
3126.595556,-497.707101,-1971.685822,-9207.581365
3126.598104,-1244.267752,2297.109696,-8997.012976
3126.600652,-803.988394,-267.996131,-8997.012976
3126.603201,-2450.250342,899.701298,-8939.585234
3126.605749,-2048.256146,1531.406464,-9035.298138
3126.608297,-2431.107762,-287.138712,-9150.153622
3126.610845,-2163.111630,2239.681954,-9111.868461
3126.613393,-1684.547110,-344.566454,-9054.440718
3126.615941,-957.129040,1914.258080,-9035.298138
3126.618490,-842.273555,-937.986459,-9150.153622
3126.621038,-746.560651,-267.996131,-9111.868461
3126.623586,-133.998066,1990.828403,-9035.298138
3126.626134,-650.847747,-2316.252277,-9054.440718
3126.628682,-153.140646,995.414202,-9016.155557
3126.631231,-306.281293,-2737.389054,-9322.436850
3126.633779,-76.570323,823.130974,-9207.581365
3126.636327,248.853550,-1359.123237,-9111.868461
3126.638875,-440.279358,-19.142581,-8997.012976
3126.641423,57.427742,-823.130974,-9245.866526
3126.643971,153.140646,-1244.267752,-9169.296203
3126.646507,-267.996131,-459.421939,-8997.012976
3126.649042,-516.849682,-1052.841944,-9265.009107
3126.651577,-459.421939,-957.129040,-8920.442653
3126.654112,-612.562586,421.136778,-9150.153622
3126.656648,-248.853550,-478.564520,-9092.725880
3126.659183,-669.990328,-459.421939,-8901.300072
3126.661718,440.279358,-478.564520,-9150.153622
3126.664253,191.425808,-842.273555,-9073.583299
3126.666789,1454.836141,-535.992262,-9131.011042
3126.669324,746.560651,-1856.830338,-9073.583299
3126.671859,306.281293,-267.996131,-9207.581365
3126.674395,114.855485,-2239.681954,-9131.011042
3126.676930,-535.992262,1110.269686,-8863.014910
3126.679465,-497.707101,-2354.537438,-9207.581365
3126.682000,-267.996131,-421.136778,-9054.440718
3126.684536,-172.283227,191.425808,-9092.725880
3126.687071,-727.418070,2679.961312,-8843.872330
3126.689606,-727.418070,-497.707101,-9016.155557
3126.692141,-1780.260014,306.281293,-9092.725880
3126.694677,-1914.258080,172.283227,-9303.294269
3126.697212,-1052.841944,976.271621,-8901.300072
3126.699747,-1282.552914,2833.101958,-8786.444587
3126.702282,-1473.978722,267.996131,-9169.296203
3126.704818,-823.130974,765.703232,-8977.870395
3126.707353,-823.130974,-765.703232,-8939.585234
3126.709888,-1914.258080,765.703232,-9131.011042
3126.712423,-995.414202,-287.138712,-8939.585234
3126.714959,-1875.972918,-267.996131,-9054.440718
3126.717494,-1990.828403,727.418070,-9245.866526
3126.720029,-497.707101,555.134843,-9016.155557
3126.722564,-1512.263883,1033.699363,-8729.016845
3126.725100,-1397.408398,1761.117434,-8843.872330
3126.727635,-2526.820666,1550.549045,-8805.587168
3126.730170,-2354.537438,1627.119368,-8977.870395
3126.732706,-2182.254211,287.138712,-9092.725880
3126.735241,-1493.121302,1186.840010,-8939.585234
3126.737776,-593.420005,191.425808,-9035.298138
3126.740311,-918.843878,-57.427742,-9035.298138
3126.742847,-363.709035,-823.130974,-9131.011042
3126.745382,-229.710970,2469.392923,-8882.157491
3126.747923,-363.709035,-2947.957443,-8977.870395
3126.750464,-76.570323,1186.840010,-8977.870395
3126.753005,-210.568389,-2297.109696,-9360.722011
3126.755545,-267.996131,363.709035,-9073.583299
3126.758086,57.427742,-363.709035,-8958.727814
3126.760627,-191.425808,-1167.697429,-8977.870395
3126.763168,191.425808,-267.996131,-9265.009107
3126.765709,287.138712,-1875.972918,-9303.294269
3126.768250,-574.277424,-918.843878,-9245.866526
3126.770791,229.710970,574.277424,-8843.872330
3126.773332,708.275490,535.992262,-8805.587168
3126.775873,-727.418070,-440.279358,-9016.155557
3126.778414,-1033.699363,-1722.832272,-9341.579430
3126.780954,-440.279358,-880.558717,-9073.583299
3126.783495,-76.570323,-1071.984525,-9303.294269
3126.786036,976.271621,-1473.978722,-9131.011042
3126.788577,1167.697429,-708.275490,-9150.153622
3126.791118,957.129040,-823.130974,-9111.868461
3126.793659,153.140646,-957.129040,-9150.153622
3126.796200,-287.138712,-555.134843,-9073.583299
3126.798741,-1014.556782,57.427742,-9035.298138
3126.801282,-172.283227,-1014.556782,-9054.440718
3126.803823,-76.570323,-440.279358,-9054.440718
3126.806363,-1569.691626,2316.252277,-9150.153622
3126.808904,-1359.123237,803.988394,-8920.442653
3126.811445,-842.273555,669.990328,-9054.440718
3126.813986,-1512.263883,-191.425808,-9188.438784
3126.816527,-1588.834206,650.847747,-9016.155557
3126.819068,-1531.406464,1741.974853,-8843.872330
3126.821609,-1588.834206,2277.967115,-8939.585234
3126.824150,-1091.127106,363.709035,-9131.011042
3126.826691,-1071.984525,-267.996131,-9131.011042
3126.829232,-1473.978722,287.138712,-9111.868461
3126.831773,-995.414202,803.988394,-8824.729749
3126.834313,-1588.834206,1684.547110,-8882.157491
3126.836854,-267.996131,823.130974,-9303.294269
3126.839395,-459.421939,-1071.984525,-9131.011042
3126.841936,-1646.261949,1588.834206,-8863.014910
3126.844477,-1588.834206,172.283227,-8901.300072
3126.847018,-2526.820666,2545.963246,-8824.729749
3126.849564,-2105.683888,1359.123237,-9035.298138
3126.852110,-2105.683888,440.279358,-8939.585234
3126.854656,-1914.258080,1550.549045,-9073.583299
3126.857202,-1359.123237,95.712904,-9111.868461
3126.859748,-708.275490,325.423874,-9035.298138
3126.862295,-382.851616,-1837.687757,-9092.725880
3126.864841,267.996131,2833.101958,-8958.727814
3126.867387,-1033.699363,-2526.820666,-9016.155557
3126.869933,-191.425808,918.843878,-8901.300072
3126.872479,-421.136778,-2316.252277,-9456.434915
3126.875025,-19.142581,382.851616,-9226.723946
3126.877571,38.285162,-823.130974,-9016.155557
3126.880117,-287.138712,-133.998066,-8958.727814
3126.882663,95.712904,-899.701298,-9284.151688
3126.885210,95.712904,-2335.394858,-9341.579430
3126.887756,-153.140646,-631.705166,-8977.870395
3126.890302,-708.275490,-899.701298,-9016.155557
3126.892848,-1110.269686,1933.400661,-8786.444587
3126.895394,689.132909,-1339.980656,-9035.298138
3126.897940,-612.562586,899.701298,-8882.157491
3126.900486,344.566454,-153.140646,-9188.438784
3126.903032,-38.285162,-803.988394,-8997.012976
3126.905578,1071.984525,76.570323,-9207.581365
3126.908124,1244.267752,-2871.387120,-9379.864592
3126.910671,229.710970,19.142581,-9016.155557
3126.913217,689.132909,-2756.531635,-9284.151688
3126.915763,-823.130974,1435.693560,-8958.727814
3126.918309,-516.849682,-1359.123237,-9111.868461
3126.920855,-497.707101,210.568389,-9016.155557
3126.923401,19.142581,-1378.265818,-9169.296203
3126.925947,-1014.556782,3005.385186,-8843.872330
3126.928493,-1512.263883,-287.138712,-8997.012976
3126.931039,-1244.267752,421.136778,-9169.296203
3126.933586,-1550.549045,478.564520,-9092.725880
3126.936132,-1454.836141,363.709035,-8939.585234
3126.938678,-1435.693560,2067.398726,-8958.727814
3126.941224,-1627.119368,1454.836141,-9054.440718
3126.943770,-1110.269686,1263.410333,-9054.440718
3126.946316,-1397.408398,-478.564520,-9111.868461
3126.948862,-1301.695494,708.275490,-9073.583299
3126.951412,-1186.840010,2833.101958,-8901.300072
3126.953963,-287.138712,0.000000,-8901.300072
3126.956513,-765.703232,1186.840010,-9169.296203
3126.959063,-765.703232,-401.994197,-9111.868461
3126.961614,-2201.396792,803.988394,-8958.727814
3126.964164,-2297.109696,1569.691626,-8958.727814
3126.966714,-2603.390989,1473.978722,-9054.440718
3126.969265,-2105.683888,1359.123237,-8824.729749
3126.971815,-2124.826469,669.990328,-8901.300072
3126.974365,-1569.691626,1665.404530,-9092.725880
3126.976916,-803.988394,-229.710970,-9016.155557
3126.979466,-612.562586,-57.427742,-9054.440718
3126.982016,133.998066,689.132909,-9207.581365
3126.984566,-1627.119368,38.285162,-8939.585234
3126.987117,-421.136778,-1263.410333,-8977.870395
3126.989667,-172.283227,-918.843878,-9092.725880
3126.992217,38.285162,-899.701298,-9418.149754
3126.994768,-57.427742,-842.273555,-9016.155557
3126.997318,-172.283227,229.710970,-8920.442653
3126.999868,57.427742,-1282.552914,-9188.438784
3127.002419,-191.425808,-1397.408398,-9169.296203
3127.004969,210.568389,-1473.978722,-9303.294269
3127.007519,-114.855485,-95.712904,-8939.585234
3127.010070,-957.129040,957.129040,-8977.870395
3127.012620,229.710970,229.710970,-8958.727814
3127.015170,-535.992262,-2565.105827,-9111.868461
3127.017721,-1014.556782,325.423874,-8882.157491
3127.020271,-153.140646,-1282.552914,-9303.294269
3127.022821,229.710970,-1282.552914,-9360.722011
3127.025371,1205.982590,-535.992262,-9475.577496
3127.027922,1167.697429,-1799.402595,-9016.155557
3127.030472,344.566454,-555.134843,-8977.870395
3127.033022,-57.427742,-957.129040,-9188.438784
3127.035573,-1225.125171,114.855485,-8958.727814
3127.038123,-95.712904,-861.416136,-9054.440718
3127.040673,-363.709035,-38.285162,-9169.296203
3127.043224,-1339.980656,1761.117434,-8977.870395
3127.045774,-1703.689691,459.421939,-9016.155557
3127.048324,-842.273555,574.277424,-9169.296203
3127.050875,-1320.838075,172.283227,-9169.296203
3127.053429,-1665.404530,248.853550,-9016.155557
3127.055983,-1205.982590,2182.254211,-8767.302006
3127.058537,-1607.976787,1684.547110,-8977.870395
3127.061091,-1167.697429,803.988394,-9073.583299
3127.063646,-708.275490,612.562586,-8824.729749
3127.066200,-1320.838075,-689.132909,-9131.011042
3127.068754,-1875.972918,727.418070,-8920.442653
3127.071308,-344.566454,4019.941968,-8901.300072
3127.073862,-248.853550,-4192.225195,-9226.723946
3127.076417,-1607.976787,5206.781978,-8901.300072
3127.078971,-727.418070,-382.851616,-9207.581365
3127.081525,-3139.383251,95.712904,-8786.444587
3127.084079,-1684.547110,2718.246474,-9265.009107
3127.086633,-2545.963246,191.425808,-8843.872330
3127.089188,-2201.396792,2488.535504,-8901.300072
3127.091742,-1397.408398,-708.275490,-9226.723946
3127.094296,-1148.554848,957.129040,-8997.012976
3127.096850,57.427742,-2277.967115,-9265.009107
3127.099404,401.994197,3158.525832,-9016.155557
3127.101959,-1378.265818,-2411.965181,-8920.442653
3127.104513,-784.845813,593.420005,-8920.442653
3127.107067,-459.421939,-1780.260014,-9226.723946
3127.109621,267.996131,-823.130974,-9322.436850
3127.112175,-401.994197,-727.418070,-9054.440718
3127.114730,-76.570323,229.710970,-8920.442653
3127.117284,0.000000,-1301.695494,-9245.866526
3127.119838,-95.712904,-1646.261949,-9207.581365
3127.122392,555.134843,-1473.978722,-9418.149754
3127.124946,172.283227,631.705166,-8882.157491
3127.127501,-516.849682,-1148.554848,-9188.438784
3127.130055,-1359.123237,0.000000,-9035.298138
3127.132609,-727.418070,-1837.687757,-9379.864592
3127.135163,-516.849682,-2603.390989,-9322.436850
3127.137718,76.570323,-880.558717,-9092.725880
3127.140272,1167.697429,-1091.127106,-9245.866526
3127.142826,1110.269686,-19.142581,-9035.298138
3127.145380,918.843878,-1856.830338,-9131.011042
3127.147934,114.855485,-669.990328,-8997.012976
3127.150489,-459.421939,-1091.127106,-9016.155557
3127.153043,-995.414202,-459.421939,-9054.440718
3127.155583,114.855485,-459.421939,-9092.725880
3127.158124,-593.420005,1205.982590,-8958.727814
3127.160665,-1167.697429,1550.549045,-8824.729749
3127.163206,-746.560651,-287.138712,-9092.725880
3127.165747,-1493.121302,229.710970,-9131.011042
3127.168287,-1837.687757,248.853550,-9169.296203
3127.170828,-976.271621,1320.838075,-8920.442653
3127.173369,-1225.125171,1933.400661,-8767.302006
3127.175910,-1033.699363,1454.836141,-9035.298138
3127.178450,-1129.412267,-1454.836141,-9169.296203
3127.180991,-1550.549045,57.427742,-9111.868461
3127.183532,-1531.406464,-133.998066,-9284.151688
3127.186073,-918.843878,2871.387120,-8843.872330
3127.188613,401.994197,1818.545176,-9150.153622
3127.191154,-210.568389,-229.710970,-8997.012976
3127.193695,-1052.841944,497.707101,-8843.872330
3127.196236,-1971.685822,-153.140646,-8958.727814
3127.198776,-3292.523898,2737.389054,-8977.870395
3127.201317,-1875.972918,976.271621,-9169.296203
3127.203858,-2354.537438,1799.402595,-8843.872330
3127.206399,-1493.121302,689.132909,-9016.155557
3127.208939,-1339.980656,19.142581,-9054.440718
3127.211480,-306.281293,-287.138712,-9131.011042
3127.214021,746.560651,267.996131,-9226.723946
3127.216562,-1550.549045,937.986459,-8805.587168
3127.219102,-535.992262,-2431.107762,-8997.012976
3127.221643,-229.710970,-38.285162,-9092.725880
3127.224184,153.140646,-2105.683888,-9475.577496
3127.226725,-306.281293,248.853550,-9016.155557
3127.229266,-229.710970,-191.425808,-8958.727814
3127.231806,57.427742,-497.707101,-9207.581365
3127.234347,-153.140646,-1512.263883,-9303.294269
3127.236888,421.136778,-1895.115499,-9341.579430
3127.239429,-57.427742,363.709035,-8977.870395
3127.241969,267.996131,1856.830338,-8977.870395
3127.244510,-555.134843,-4039.084549,-9016.155557
3127.247051,-2699.103893,2277.967115,-8786.444587
3127.249592,1301.695494,-2277.967115,-9456.434915
3127.252132,-229.710970,-2679.961312,-9207.581365
3127.254673,1971.685822,1339.980656,-9265.009107
3127.257219,1359.123237,-3254.238736,-9284.151688
3127.259765,210.568389,1741.974853,-9054.440718
3127.262311,593.420005,-3981.656806,-9360.722011
3127.264857,-1071.984525,1052.841944,-8863.014910
3127.267403,133.998066,-2392.822600,-9341.579430
3127.269949,-478.564520,267.996131,-9016.155557
3127.272495,-995.414202,727.418070,-9073.583299
3127.275041,-1205.982590,1914.258080,-8709.874264
3127.277587,-574.277424,-535.992262,-9111.868461
3127.280133,-1014.556782,421.136778,-9207.581365
3127.282679,-2201.396792,191.425808,-9245.866526
3127.285225,-631.705166,1473.978722,-8920.442653
3127.287771,-1416.550979,1895.115499,-8748.159426
3127.290317,-1148.554848,899.701298,-9150.153622
3127.292863,-1091.127106,-459.421939,-8977.870395
3127.295409,-1646.261949,612.562586,-9035.298138
3127.297955,-210.568389,1722.832272,-9092.725880
3127.300501,-1225.125171,-210.568389,-8863.014910
3127.303047,-344.566454,1933.400661,-9188.438784
3127.305593,-976.271621,-1818.545176,-9131.011042
3127.308139,-2373.680019,1933.400661,-8805.587168
3127.310685,-1473.978722,229.710970,-9035.298138
3127.313231,-3349.951640,1493.121302,-9016.155557
3127.315777,-1703.689691,1971.685822,-9188.438784
3127.318323,-2718.246474,574.277424,-8863.014910
3127.320869,-1512.263883,1837.687757,-9016.155557
3127.323415,-1071.984525,-1148.554848,-9245.866526
3127.325961,-421.136778,267.996131,-8997.012976
3127.328507,1052.841944,1531.406464,-9188.438784
3127.331053,-1091.127106,-1818.545176,-8843.872330
3127.333599,-459.421939,593.420005,-9016.155557
3127.336145,-784.845813,-2737.389054,-9226.723946
3127.338696,-19.142581,287.138712,-9284.151688
3127.341246,191.425808,-1167.697429,-9035.298138
3127.343797,-593.420005,95.712904,-8882.157491
3127.346348,229.710970,-1799.402595,-9379.864592
3127.348898,-95.712904,-1186.840010,-9169.296203
3127.351449,267.996131,-937.986459,-9092.725880
3127.354000,287.138712,1205.982590,-8843.872330
3127.356550,-459.421939,-1014.556782,-8958.727814
3127.359101,-1339.980656,-2239.681954,-9111.868461
3127.361652,-1895.115499,210.568389,-9322.436850
3127.364202,555.134843,-2124.826469,-9379.864592
3127.366753,650.847747,-57.427742,-9035.298138
3127.369304,2048.256146,-1856.830338,-9207.581365
3127.371854,459.421939,-229.710970,-9150.153622
3127.374405,727.418070,-1378.265818,-9169.296203
3127.376956,-803.988394,-995.414202,-9073.583299
3127.379506,-689.132909,-57.427742,-9111.868461
3127.382057,-229.710970,-1110.269686,-9092.725880
3127.384608,-459.421939,1454.836141,-8939.585234
3127.387159,-1416.550979,1569.691626,-8863.014910
3127.389709,-1684.547110,459.421939,-9035.298138
3127.392260,-1282.552914,153.140646,-9111.868461
3127.394811,-1167.697429,363.709035,-9226.723946
3127.397361,-1110.269686,957.129040,-8863.014910
3127.399912,-1263.410333,2029.113565,-8882.157491
3127.402463,-1722.832272,1569.691626,-8977.870395
3127.405013,-1148.554848,38.285162,-9016.155557
3127.407564,-842.273555,-210.568389,-8843.872330
3127.410115,-1684.547110,2239.681954,-8997.012976
3127.412665,803.988394,459.421939,-9111.868461
3127.415216,-918.843878,1512.263883,-8633.303941
3127.417767,-689.132909,2450.250342,-9284.151688
3127.420317,-1607.976787,-2928.814862,-8843.872330
3127.422868,-1856.830338,4996.213589,-8805.587168
3127.425419,-1741.974853,-19.142581,-9150.153622
3127.427969,-3617.947771,3617.947771,-8786.444587
3127.430520,-1225.125171,995.414202,-9035.298138
3127.433071,-2679.961312,957.129040,-8958.727814
3127.435621,-382.851616,153.140646,-9303.294269
3127.438172,-593.420005,-1320.838075,-9035.298138
3127.440726,612.562586,4747.360038,-8939.585234
3127.443280,-574.277424,-4345.365842,-9035.298138
3127.445835,-957.129040,2813.959378,-8767.302006
3127.448389,-344.566454,-4096.512291,-9207.581365
3127.450944,-478.564520,650.847747,-9207.581365
3127.453498,421.136778,-1397.408398,-9092.725880
3127.456053,-497.707101,-19.142581,-8920.442653
3127.458607,57.427742,-937.986459,-9245.866526
3127.461162,229.710970,-1607.976787,-9265.009107
3127.463716,-229.710970,-2029.113565,-9284.151688
3127.466271,-689.132909,-842.273555,-9188.438784
3127.468825,-1435.693560,1627.119368,-9016.155557
3127.471380,-172.283227,-1071.984525,-9016.155557
3127.473934,-727.418070,689.132909,-9284.151688
3127.476488,478.564520,-3388.236802,-9418.149754
3127.479043,133.998066,440.279358,-9073.583299
3127.481597,1856.830338,-497.707101,-9226.723946
3127.484152,344.566454,-727.418070,-8997.012976
3127.486706,880.558717,-344.566454,-9188.438784
3127.489261,-899.701298,-1473.978722,-8977.870395
3127.491815,-555.134843,-287.138712,-9073.583299
3127.494370,-57.427742,-1320.838075,-9265.009107
3127.496924,-459.421939,1014.556782,-9054.440718
3127.499479,-1531.406464,1339.980656,-8824.729749
3127.502033,-1033.699363,248.853550,-8977.870395
3127.504588,-1378.265818,-287.138712,-9207.581365
3127.507142,-1416.550979,57.427742,-9284.151688
3127.509697,-957.129040,1512.263883,-8901.300072
3127.512251,-1148.554848,1952.543242,-8843.872330
3127.514806,-1703.689691,2048.256146,-9016.155557
3127.517360,-1014.556782,114.855485,-8939.585234
3127.519915,-1033.699363,95.712904,-9054.440718
3127.522469,-784.845813,765.703232,-9341.579430
3127.525024,-497.707101,38.285162,-9111.868461
3127.527578,-1493.121302,2354.537438,-9035.298138
3127.530133,-1148.554848,76.570323,-9188.438784
3127.532687,-1244.267752,593.420005,-8843.872330
3127.535242,-1473.978722,1014.556782,-8863.014910
3127.537796,-2354.537438,1071.984525,-9150.153622
3127.540351,-2679.961312,3617.947771,-8958.727814
3127.542909,-2163.111630,-57.427742,-9016.155557
3127.545467,-1531.406464,1052.841944,-9035.298138
3127.548025,-267.996131,-1665.404530,-9341.579430
3127.550583,57.427742,-593.420005,-9322.436850
3127.553141,-248.853550,2565.105827,-8977.870395
3127.555699,-76.570323,-2163.111630,-8977.870395
3127.558257,-478.564520,-1301.695494,-8939.585234
3127.560815,-38.285162,-1990.828403,-9379.864592
3127.563373,-478.564520,248.853550,-9188.438784
3127.565931,-114.855485,-650.847747,-8920.442653
3127.568489,-172.283227,421.136778,-8920.442653
3127.571047,-57.427742,-1875.972918,-9284.151688
3127.573605,114.855485,-1129.412267,-9207.581365
3127.576163,-574.277424,-1837.687757,-9150.153622
3127.578721,-1799.402595,727.418070,-8901.300072
3127.581279,-344.566454,-689.132909,-9265.009107
3127.583837,-1263.410333,-1493.121302,-9169.296203
3127.586395,191.425808,248.853550,-9399.007173
3127.588953,38.285162,-2488.535504,-9284.151688
3127.591511,1569.691626,38.285162,-9207.581365
3127.594069,937.986459,-1531.406464,-9379.864592
3127.596627,95.712904,153.140646,-9035.298138
3127.599185,-133.998066,-1914.258080,-9188.438784
3127.601743,-1110.269686,-325.423874,-8958.727814
3127.604301,172.283227,-1416.550979,-9265.009107
3127.606859,-555.134843,497.707101,-9073.583299
3127.609417,-1799.402595,2756.531635,-8958.727814
3127.611975,-1952.543242,114.855485,-9035.298138
3127.614533,-1607.976787,267.996131,-9150.153622
3127.617091,-1091.127106,-133.998066,-9169.296203
3127.619649,-1014.556782,1339.980656,-8958.727814
3127.622207,-1148.554848,2354.537438,-8882.157491
3127.624765,-1569.691626,1741.974853,-8977.870395
3127.627323,-1263.410333,401.994197,-9035.298138
3127.629881,-995.414202,-95.712904,-8939.585234
3127.632439,-976.271621,1512.263883,-9035.298138
3127.634997,535.992262,-153.140646,-9207.581365
3127.637555,-631.705166,2067.398726,-8920.442653
3127.640113,-957.129040,-650.847747,-9035.298138
3127.642671,-2048.256146,995.414202,-9092.725880
3127.645233,-1665.404530,76.570323,-9016.155557
3127.647794,-2775.674216,1569.691626,-9035.298138
3127.650355,-2029.113565,2067.398726,-9035.298138
3127.652916,-2048.256146,631.705166,-8939.585234
3127.655478,-1282.552914,497.707101,-8901.300072
3127.658039,-765.703232,-708.275490,-9207.581365
3127.660600,401.994197,-1339.980656,-9284.151688
3127.663161,-478.564520,2431.107762,-8997.012976
3127.665723,-95.712904,-2373.680019,-8977.870395
3127.668284,-172.283227,344.566454,-8843.872330
3127.670845,-401.994197,-2852.244539,-9303.294269
3127.673406,-344.566454,-727.418070,-9169.296203
3127.675968,-516.849682,-172.283227,-8977.870395
3127.678529,57.427742,210.568389,-9016.155557
3127.681090,76.570323,-1550.549045,-9207.581365
3127.683651,172.283227,-2086.541307,-9494.720077
3127.686213,287.138712,-76.570323,-8901.300072
3127.688774,-344.566454,-1282.552914,-9111.868461
3127.691335,-1339.980656,153.140646,-8863.014910
3127.693896,-1129.412267,-248.853550,-9513.862658
3127.696458,516.849682,-2775.674216,-9379.864592
3127.699019,287.138712,-421.136778,-9131.011042
3127.701580,1722.832272,-1627.119368,-9341.579430
3127.704141,440.279358,229.710970,-9092.725880
3127.706703,957.129040,-1550.549045,-9284.151688
3127.709264,-880.558717,-784.845813,-8977.870395
3127.711825,-440.279358,-267.996131,-9111.868461
3127.714386,-19.142581,-1741.974853,-9207.581365
3127.716948,-689.132909,1761.117434,-8882.157491
3127.719509,-1244.267752,2469.392923,-8767.302006
3127.722070,-1627.119368,133.998066,-9054.440718
3127.724631,-1110.269686,-133.998066,-9265.009107
3127.727193,-1473.978722,-38.285162,-9169.296203
3127.729754,-708.275490,2220.539373,-8882.157491
3127.732315,-1205.982590,1339.980656,-8882.157491
3127.734876,-1397.408398,2316.252277,-8997.012976
3127.737438,-1186.840010,-1148.554848,-9131.011042
3127.739999,-1454.836141,57.427742,-8939.585234
3127.742560,-57.427742,95.712904,-9437.292334
3127.745121,-1071.984525,478.564520,-9226.723946
3127.747685,-918.843878,1588.834206,-8786.444587
3127.750249,-1971.685822,76.570323,-8997.012976
3127.752813,-2143.969050,287.138712,-8958.727814
3127.755377,-2239.681954,363.709035,-8843.872330
3127.757941,-2220.539373,2833.101958,-8939.585234
3127.760504,-2507.678085,1569.691626,-9035.298138
3127.763068,-1895.115499,2029.113565,-8843.872330
3127.765632,-1493.121302,-1378.265818,-9131.011042
3127.768196,-306.281293,-440.279358,-9207.581365
3127.770760,1186.840010,1895.115499,-9150.153622
3127.773323,-401.994197,-1416.550979,-8977.870395
3127.775887,-650.847747,880.558717,-8843.872330
3127.778451,-746.560651,-3694.518094,-9150.153622
3127.781015,95.712904,306.281293,-9245.866526
3127.783579,-153.140646,-1856.830338,-9207.581365
3127.786143,-440.279358,1167.697429,-8958.727814
3127.788706,0.000000,-1550.549045,-9131.011042
3127.791270,-248.853550,-1167.697429,-9245.866526
3127.793834,459.421939,-937.986459,-9092.725880
3127.796398,478.564520,1339.980656,-8977.870395
3127.798962,-995.414202,-4402.793584,-9092.725880
3127.801525,-2622.533570,1780.260014,-9073.583299
3127.804089,248.853550,-1263.410333,-9379.864592
3127.806653,57.427742,-3081.955509,-9188.438784
3127.809217,2354.537438,478.564520,-9131.011042
3127.811781,1435.693560,-2622.533570,-9265.009107
3127.814345,267.996131,1416.550979,-9054.440718
3127.816908,153.140646,-2335.394858,-9073.583299
3127.819472,-1205.982590,-133.998066,-8786.444587
3127.822036,440.279358,-2526.820666,-9265.009107
3127.824600,-1282.552914,1167.697429,-9016.155557
3127.827164,-1512.263883,3579.662610,-8958.727814
3127.829727,-1856.830338,-1282.552914,-8997.012976
3127.832291,-1397.408398,861.416136,-9073.583299
3127.834855,-612.562586,-344.566454,-9245.866526
3127.837419,-1550.549045,861.416136,-8977.870395
3127.839983,-861.416136,2507.678085,-8939.585234
3127.842547,-1665.404530,2392.822600,-8863.014910
3127.845110,-1435.693560,0.000000,-8901.300072
3127.847674,-1473.978722,-1186.840010,-9016.155557
3127.850240,-1531.406464,2067.398726,-9054.440718
3127.852807,1167.697429,823.130974,-9150.153622
3127.855373,-1014.556782,2411.965181,-8709.874264
3127.857939,-803.988394,899.701298,-8901.300072
3127.860505,-1952.543242,306.281293,-8901.300072
3127.863071,-1895.115499,1569.691626,-8939.585234
3127.865638,-2699.103893,612.562586,-9131.011042
3127.868204,-2469.392923,3560.520029,-8805.587168
3127.870770,-1646.261949,210.568389,-9035.298138
3127.873336,-1646.261949,995.414202,-8997.012976
3127.875902,0.000000,-2392.822600,-9322.436850
3127.878469,1320.838075,2699.103893,-9131.011042
3127.881035,-765.703232,-2258.824534,-9054.440718
3127.883601,-229.710970,1512.263883,-8882.157491
3127.886167,-899.701298,-3483.949706,-9111.868461
3127.888733,-191.425808,612.562586,-9226.723946
3127.891300,-287.138712,-1665.404530,-9207.581365
3127.893866,-133.998066,861.416136,-8977.870395
3127.896432,-133.998066,-1569.691626,-9188.438784
3127.898998,114.855485,-459.421939,-9035.298138
3127.901564,114.855485,-2852.244539,-9322.436850
3127.904131,-669.990328,-1033.699363,-9035.298138
3127.906697,-1933.400661,842.273555,-8901.300072
3127.909263,57.427742,-535.992262,-9150.153622
3127.911829,19.142581,-1627.119368,-9111.868461
3127.914395,727.418070,-1071.984525,-9092.725880
3127.916962,593.420005,-1665.404530,-9245.866526
3127.919528,1052.841944,-191.425808,-9245.866526
3127.922094,937.986459,-478.564520,-9131.011042
3127.924660,-612.562586,-1148.554848,-8977.870395
3127.927226,-689.132909,-1493.121302,-8939.585234
3127.929793,-382.851616,-861.416136,-9169.296203
3127.932359,-784.845813,899.701298,-9054.440718
3127.934925,-1301.695494,3388.236802,-8709.874264
3127.937491,-1512.263883,-612.562586,-9035.298138
3127.940057,-1550.549045,976.271621,-9226.723946
3127.942624,-1627.119368,-306.281293,-9265.009107
3127.945190,-478.564520,1761.117434,-8882.157491
3127.947756,-995.414202,1741.974853,-8786.444587
3127.950322,-1531.406464,2029.113565,-9035.298138
3127.952874,-1512.263883,114.855485,-8939.585234
3127.955425,-1205.982590,708.275490,-8824.729749
3127.957976,0.000000,976.271621,-9226.723946
3127.960527,-191.425808,1186.840010,-9188.438784
3127.963079,-612.562586,2909.672282,-8901.300072
3127.965630,-1378.265818,-727.418070,-8939.585234
3127.968181,-2048.256146,2411.965181,-8920.442653
3127.970733,-2411.965181,-689.132909,-9150.153622
3127.973284,-3005.385186,3943.371645,-8901.300072
3127.975835,-1646.261949,861.416136,-8977.870395
3127.978387,-1856.830338,1895.115499,-8786.444587
3127.980938,-555.134843,-1359.123237,-9169.296203
3127.983489,727.418070,-1263.410333,-9475.577496
3127.986040,-823.130974,1856.830338,-9111.868461
3127.988592,248.853550,-2469.392923,-9073.583299
3127.991143,-248.853550,746.560651,-8805.587168
3127.993694,-229.710970,-2967.100024,-9360.722011
3127.996246,-957.129040,-401.994197,-9188.438784
3127.998797,-555.134843,-459.421939,-9073.583299
3128.001348,-38.285162,38.285162,-9226.723946
3128.003899,-133.998066,-1033.699363,-9054.440718
3128.006451,172.283227,-1780.260014,-9188.438784
3128.009002,229.710970,-2086.541307,-8939.585234
3128.011553,-1875.972918,1071.984525,-8958.727814
3128.014105,-995.414202,746.560651,-8958.727814
3128.016656,19.142581,-937.986459,-9188.438784
3128.019207,229.710970,-2258.824534,-9322.436850
3128.021759,1071.984525,-1569.691626,-9131.011042
3128.024310,1454.836141,-1301.695494,-9207.581365
3128.026861,650.847747,229.710970,-9360.722011
3128.029412,57.427742,-708.275490,-9150.153622
3128.031964,-1052.841944,-1512.263883,-8901.300072
3128.034515,-325.423874,-1952.543242,-9226.723946
3128.037066,-1110.269686,803.988394,-9073.583299
3128.039618,-1225.125171,3943.371645,-8824.729749
3128.042169,-1703.689691,-631.705166,-8786.444587
3128.044720,-1091.127106,1033.699363,-9150.153622
3128.047272,-1167.697429,-631.705166,-9226.723946
3128.049823,-1244.267752,669.990328,-9092.725880
3128.052374,-1129.412267,2545.963246,-8920.442653
3128.054929,-1473.978722,2431.107762,-8843.872330
3128.057485,-1263.410333,-287.138712,-8863.014910
3128.060040,-1818.545176,-1301.695494,-9073.583299
3128.062595,-1818.545176,842.273555,-9188.438784
3128.065150,746.560651,1263.410333,-9360.722011
3128.067706,-1071.984525,516.849682,-9016.155557
3128.070261,-1493.121302,2143.969050,-8843.872330
3128.072816,-1933.400661,0.000000,-8824.729749
3128.075371,-2373.680019,1837.687757,-8843.872330
3128.077926,-2297.109696,1091.127106,-9111.868461
3128.080482,-2603.390989,2794.816797,-8920.442653
3128.083037,-1091.127106,248.853550,-9016.155557
3128.085592,-1493.121302,-114.855485,-8997.012976
3128.088147,612.562586,-1799.402595,-9418.149754
3128.090703,95.712904,2565.105827,-9111.868461
3128.093258,248.853550,-3311.666478,-9169.296203
3128.095813,19.142581,-1397.408398,-8863.014910
3128.098368,-287.138712,-1186.840010,-9054.440718
3128.100924,-248.853550,-267.996131,-9284.151688
3128.103479,-535.992262,-1071.984525,-9092.725880
3128.106034,19.142581,248.853550,-9111.868461
3128.108589,-248.853550,-1780.260014,-9322.436850
3128.111145,497.707101,-784.845813,-9188.438784
3128.113700,-325.423874,-669.990328,-8901.300072
3128.116255,-1531.406464,1033.699363,-8863.014910
3128.118810,631.705166,-325.423874,-9035.298138
3128.121366,-727.418070,-1416.550979,-9265.009107
3128.123921,287.138712,-1454.836141,-9284.151688
3128.126476,229.710970,-1301.695494,-9131.011042
3128.129031,1339.980656,-861.416136,-9169.296203
3128.131586,1225.125171,-1875.972918,-9188.438784
3128.134142,-401.994197,191.425808,-8977.870395
3128.136697,-248.853550,-2584.248408,-9131.011042
3128.139252,-957.129040,-593.420005,-9054.440718
3128.141807,-708.275490,535.992262,-9054.440718
3128.144363,-1550.549045,3560.520029,-8824.729749
3128.146918,-1780.260014,-937.986459,-9035.298138
3128.149473,-1454.836141,1033.699363,-9092.725880
3128.152028,-1856.830338,-95.712904,-9245.866526
3128.154584,-76.570323,1416.550979,-8920.442653
3128.157142,-1129.412267,1722.832272,-8805.587168
3128.159701,-1301.695494,2105.683888,-8997.012976
3128.162260,-1569.691626,191.425808,-8805.587168
3128.164819,-1512.263883,555.134843,-8824.729749
3128.167378,-210.568389,1320.838075,-9111.868461
3128.169937,-325.423874,1071.984525,-9016.155557
3128.172496,-861.416136,3713.660675,-8729.016845
3128.175054,-1263.410333,38.285162,-8843.872330
3128.177613,-2086.541307,1933.400661,-8614.161360
3128.180172,-2086.541307,267.996131,-9016.155557
3128.182731,-3062.812928,3081.955509,-8997.012976
3128.185290,-1607.976787,1684.547110,-9150.153622
3128.187849,-1703.689691,995.414202,-8863.014910
3128.190408,-478.564520,-1493.121302,-9188.438784
3128.192966,1607.976787,2239.681954,-9207.581365
3128.195525,-574.277424,-2737.389054,-9092.725880
3128.198084,-382.851616,516.849682,-9035.298138
3128.200643,-459.421939,-2124.826469,-8939.585234
3128.203202,-57.427742,-689.132909,-9169.296203
3128.205761,-172.283227,-593.420005,-9073.583299
3128.208320,-497.707101,-574.277424,-9035.298138
3128.210878,38.285162,-574.277424,-9150.153622
3128.213437,133.998066,-1263.410333,-9035.298138
3128.215996,-497.707101,-1837.687757,-9265.009107
3128.218555,-19.142581,401.994197,-8882.157491
3128.221114,-1052.841944,153.140646,-8882.157491
3128.223673,497.707101,19.142581,-9111.868461
3128.226232,-880.558717,-2239.681954,-9322.436850
3128.228790,421.136778,-669.990328,-9111.868461
3128.231349,918.843878,-2143.969050,-9226.723946
3128.233908,1167.697429,191.425808,-9207.581365
3128.236467,555.134843,-1244.267752,-9226.723946
3128.239026,-842.273555,-421.136778,-8901.300072
3128.241585,-248.853550,-2507.678085,-9073.583299
3128.244144,-574.277424,555.134843,-9092.725880
3128.246702,-1493.121302,3081.955509,-9073.583299
3128.249261,-2335.394858,535.992262,-8786.444587
3128.251820,-937.986459,708.275490,-8997.012976
3128.254379,-1359.123237,-38.285162,-9284.151688
3128.256938,-1129.412267,-57.427742,-9188.438784
3128.259500,-880.558717,2756.531635,-8863.014910
3128.262061,-1320.838075,1378.265818,-9073.583299
3128.264623,-1454.836141,1837.687757,-8863.014910
3128.267185,-1588.834206,-995.414202,-9016.155557
3128.269746,-2201.396792,325.423874,-9207.581365
3128.272308,210.568389,1225.125171,-9418.149754
3128.274870,-497.707101,344.566454,-8997.012976
3128.277431,-1550.549045,3139.383251,-8901.300072
3128.279993,-2201.396792,-669.990328,-8786.444587
3128.282555,-2450.250342,2890.529701,-8786.444587
3128.285117,-2411.965181,114.855485,-9188.438784
3128.287678,-2431.107762,2354.537438,-9016.155557
3128.290240,-861.416136,727.418070,-8901.300072
3128.292802,-1167.697429,-1359.123237,-9016.155557
3128.295363,1263.410333,555.134843,-9341.579430
3128.297925,-918.843878,-937.986459,-9092.725880
3128.300487,-440.279358,-976.271621,-9207.581365
3128.303048,344.566454,-1205.982590,-8920.442653
3128.305610,-19.142581,344.566454,-9054.440718
3128.308172,57.427742,-1397.408398,-9150.153622
3128.310734,-765.703232,-229.710970,-8997.012976
3128.313295,172.283227,-842.273555,-9226.723946
3128.315857,0.000000,-2067.398726,-9284.151688
3128.318419,267.996131,-1110.269686,-9303.294269
3128.320980,-210.568389,-1703.689691,-9073.583299
3128.323542,-2411.965181,1052.841944,-8958.727814
3128.326104,-803.988394,1129.412267,-9226.723946
3128.328665,-57.427742,-2909.672282,-9303.294269
3128.331227,1320.838075,650.847747,-9111.868461
3128.333789,1282.552914,-2775.674216,-9092.725880
3128.336350,535.992262,133.998066,-9054.440718
3128.338912,842.273555,-1071.984525,-9303.294269
3128.341474,-861.416136,-995.414202,-8939.585234
3128.344036,-172.283227,-555.134843,-9092.725880
3128.346597,-727.418070,-593.420005,-9169.296203
3128.349159,-1512.263883,4823.930362,-8863.014910
3128.351721,-2545.963246,-937.986459,-8901.300072
3128.354282,-861.416136,1799.402595,-8901.300072
3128.356844,-880.558717,-440.279358,-9245.866526
3128.359406,-1397.408398,574.277424,-9035.298138
3128.361970,-784.845813,2029.113565,-8843.872330
3128.364534,-1397.408398,1684.547110,-8958.727814
3128.367099,-1435.693560,1359.123237,-8786.444587
3128.369663,-1454.836141,-76.570323,-8824.729749
3128.372227,-842.273555,1531.406464,-9035.298138
3128.374791,325.423874,1225.125171,-8977.870395
3128.377356,19.142581,2316.252277,-9054.440718
3128.379920,-1225.125171,344.566454,-8939.585234
3128.382484,-2086.541307,1473.978722,-8633.303941
3128.385049,-2469.392923,612.562586,-8824.729749
3128.387613,-3005.385186,2488.535504,-9016.155557
3128.390177,-1684.547110,1780.260014,-9054.440718
3128.392741,-1531.406464,1205.982590,-9035.298138
3128.395306,-229.710970,-1990.828403,-9073.583299
3128.397870,1282.552914,2813.959378,-9226.723946
3128.400434,-593.420005,-3407.379382,-9207.581365
3128.402999,-19.142581,1569.691626,-8882.157491
3128.405563,-708.275490,-2392.822600,-9322.436850
3128.408127,-210.568389,-210.568389,-9188.438784
3128.410691,-57.427742,-1091.127106,-8977.870395
3128.413256,-133.998066,114.855485,-9054.440718
3128.415820,-267.996131,-1397.408398,-9360.722011
3128.418384,114.855485,-2220.539373,-9399.007173
3128.420948,57.427742,-2507.678085,-9188.438784
3128.423513,-2335.394858,-2871.387120,-8958.727814
3128.426077,-2182.254211,4689.932296,-8824.729749
3128.428641,1091.127106,-4651.647134,-9437.292334
3128.431206,803.988394,1014.556782,-9054.440718
3128.433770,1110.269686,-2909.672282,-9399.007173
3128.436334,-172.283227,478.564520,-8786.444587
3128.438898,1684.547110,-2182.254211,-9418.149754
3128.441463,-210.568389,-1818.545176,-9207.581365
3128.444027,114.855485,-1110.269686,-9016.155557
3128.446591,-287.138712,-1416.550979,-9073.583299
3128.449156,-1990.828403,2239.681954,-8997.012976
3128.451720,-1722.832272,2354.537438,-8863.014910
3128.454284,-1569.691626,95.712904,-8901.300072
3128.456848,-1416.550979,555.134843,-9207.581365
3128.459413,-1588.834206,229.710970,-9303.294269
3128.461977,-803.988394,976.271621,-8882.157491
3128.464527,-765.703232,2258.824534,-8882.157491
3128.467076,-1550.549045,1205.982590,-9207.581365
3128.469626,-1588.834206,-95.712904,-8958.727814
3128.472176,-1914.258080,1339.980656,-8977.870395
3128.474725,478.564520,-765.703232,-9265.009107
3128.477275,-191.425808,2201.396792,-8958.727814
3128.479824,-727.418070,2813.959378,-8863.014910
3128.482374,-2297.109696,210.568389,-8920.442653
3128.484923,-2545.963246,2201.396792,-8901.300072
3128.487473,-2986.242605,57.427742,-9111.868461
3128.490022,-2182.254211,2986.242605,-9073.583299
3128.492572,-1129.412267,133.998066,-9016.155557
3128.495122,-1091.127106,708.275490,-8901.300072
3128.497671,612.562586,-401.994197,-9303.294269
3128.500221,-803.988394,-287.138712,-9016.155557
3128.502770,0.000000,-2488.535504,-9169.296203
3128.505320,287.138712,76.570323,-9035.298138
3128.507869,-57.427742,-1665.404530,-9169.296203
3128.510419,-746.560651,-382.851616,-8997.012976
3128.512968,-535.992262,-535.992262,-9092.725880
3128.515518,19.142581,-995.414202,-9322.436850
3128.518068,-133.998066,-631.705166,-9092.725880
3128.520617,861.416136,-823.130974,-9111.868461
3128.523167,153.140646,-325.423874,-8958.727814
3128.525716,-1703.689691,-1167.697429,-8729.016845
3128.528266,-784.845813,1186.840010,-9265.009107
3128.530815,344.566454,-3101.098090,-9360.722011
3128.533365,746.560651,306.281293,-9150.153622
3128.535915,1493.121302,-1588.834206,-9188.438784
3128.538464,765.703232,-478.564520,-9092.725880
3128.541014,153.140646,306.281293,-9150.153622
3128.543563,-727.418070,-2718.246474,-9054.440718
3128.546113,-114.855485,-229.710970,-9016.155557
3128.548662,-1033.699363,-631.705166,-9111.868461
3128.551212,-1741.974853,5015.356170,-8863.014910
3128.553761,-2469.392923,-1627.119368,-8863.014910
3128.556311,-1856.830338,1875.972918,-9054.440718
3128.558861,-1148.554848,-765.703232,-9475.577496
3128.561410,-382.851616,1550.549045,-8920.442653
3128.563960,-918.843878,1761.117434,-8748.159426
3128.566513,-1454.836141,2411.965181,-8901.300072
3128.569067,-2182.254211,325.423874,-9054.440718
3128.571621,-937.986459,-1473.978722,-8958.727814
3128.574175,-1741.974853,-631.705166,-9284.151688
3128.576728,-478.564520,478.564520,-9188.438784
3128.579282,-1569.691626,2067.398726,-8958.727814
3128.581836,-2239.681954,478.564520,-8920.442653
3128.584390,-2239.681954,1244.267752,-8863.014910
3128.586943,-2833.101958,401.994197,-8786.444587
3128.589497,-2603.390989,2775.674216,-8997.012976
3128.592051,-1263.410333,976.271621,-9150.153622
3128.594604,-1033.699363,-1320.838075,-9035.298138
3128.597158,1167.697429,880.558717,-9284.151688
3128.599712,-1052.841944,-1684.547110,-9131.011042
3128.602266,-95.712904,-1397.408398,-9207.581365
3128.604819,478.564520,-1014.556782,-9035.298138
3128.607373,-382.851616,-1320.838075,-9226.723946
3128.609927,-153.140646,-38.285162,-8977.870395
3128.612480,-516.849682,-325.423874,-8901.300072
3128.615034,57.427742,-823.130974,-9418.149754
3128.617588,-57.427742,-1933.400661,-9379.864592
3128.620142,593.420005,-1684.547110,-9169.296203
3128.622695,-1014.556782,-765.703232,-9035.298138
3128.625249,-1263.410333,1799.402595,-8901.300072
3128.627803,-19.142581,-4843.072942,-9303.294269
3128.630356,57.427742,1129.412267,-9360.722011
3128.632910,1435.693560,-2679.961312,-9513.862658
3128.635464,114.855485,-172.283227,-8786.444587
3128.638018,1397.408398,-1416.550979,-9188.438784
3128.640571,-382.851616,-440.279358,-8939.585234
3128.643125,229.710970,-1875.972918,-9131.011042
3128.645679,-842.273555,-1186.840010,-9073.583299
3128.648236,-1627.119368,1416.550979,-9092.725880
3128.650794,-2392.822600,976.271621,-8882.157491
3128.653351,-1493.121302,1033.699363,-8882.157491
3128.655909,-1244.267752,38.285162,-9207.581365
3128.658466,-1607.976787,57.427742,-9418.149754
3128.661024,-459.421939,727.418070,-8920.442653
3128.663581,-650.847747,2411.965181,-8748.159426
3128.666139,-1473.978722,1263.410333,-9035.298138
3128.668696,-2124.826469,-229.710970,-9111.868461
3128.671254,-2852.244539,-823.130974,-9169.296203
3128.673811,-38.285162,478.564520,-9437.292334
3128.676369,-861.416136,784.845813,-8977.870395
3128.678926,-1167.697429,2852.244539,-8690.731683
3128.681484,-1856.830338,995.414202,-8767.302006
3128.684041,-2660.818731,2105.683888,-8843.872330
3128.686599,-2737.389054,-38.285162,-9054.440718
3128.689156,-2239.681954,2105.683888,-9092.725880
3128.691714,-1052.841944,478.564520,-9111.868461
3128.694271,-535.992262,-401.994197,-9150.153622
3128.696829,1148.554848,1473.978722,-9073.583299
3128.699386,210.568389,-3388.236802,-9016.155557
3128.701944,267.996131,-478.564520,-9150.153622
3128.704501,19.142581,-574.277424,-9245.866526
3128.707059,-440.279358,-2067.398726,-9111.868461
3128.709616,-497.707101,191.425808,-8805.587168
3128.712174,-95.712904,-612.562586,-9188.438784
3128.714731,153.140646,-1205.982590,-9207.581365
3128.717289,267.996131,-1397.408398,-9245.866526
3128.719846,344.566454,-2048.256146,-9092.725880
3128.722404,-1933.400661,1339.980656,-8863.014910
3128.724961,-344.566454,-287.138712,-8977.870395
3128.727519,-497.707101,-2143.969050,-9207.581365
3128.730076,497.707101,-497.707101,-9418.149754
3128.732634,1071.984525,-2909.672282,-9418.149754
3128.735191,880.558717,114.855485,-8977.870395
3128.737749,612.562586,-1607.976787,-9284.151688
3128.740306,-555.134843,-440.279358,-8939.585234
3128.742864,-153.140646,-2967.100024,-9265.009107
3128.745421,-1110.269686,823.130974,-9131.011042
3128.747979,-1990.828403,2928.814862,-8977.870395
3128.750540,-1933.400661,114.855485,-8709.874264
3128.753101,-1339.980656,1339.980656,-9073.583299
3128.755661,-1435.693560,57.427742,-9322.436850
3128.758222,-880.558717,267.996131,-9188.438784
3128.760783,-516.849682,1952.543242,-8805.587168
3128.763344,-1091.127106,2277.967115,-8901.300072
3128.765905,-1493.121302,1244.267752,-9035.298138
3128.768466,-1607.976787,1110.269686,-8939.585234
3128.771026,-325.423874,-1569.691626,-9322.436850
3128.773587,-1205.982590,803.988394,-9169.296203
3128.776148,-976.271621,2718.246474,-8997.012976
3128.778709,-1914.258080,880.558717,-8882.157491
3128.781270,-2488.535504,1875.972918,-8843.872330
3128.783831,-2890.529701,-191.425808,-9035.298138
3128.786392,-2718.246474,2009.970984,-9073.583299
3128.788952,-1148.554848,1493.121302,-9188.438784
3128.791513,-937.986459,-1301.695494,-9054.440718
3128.794074,1186.840010,2526.820666,-9092.725880
3128.796635,-459.421939,-4000.799387,-8997.012976
3128.799196,287.138712,478.564520,-9169.296203
3128.801757,267.996131,-1971.685822,-9303.294269
3128.804318,-631.705166,-1722.832272,-9150.153622
3128.806878,248.853550,153.140646,-8863.014910
3128.809439,-708.275490,-631.705166,-8997.012976
3128.812000,-287.138712,-976.271621,-9533.005238
3128.814561,555.134843,-2124.826469,-9169.296203
3128.817122,-516.849682,114.855485,-9111.868461
3128.819683,267.996131,267.996131,-9035.298138
3128.822243,-1052.841944,1110.269686,-8748.159426
3128.824804,1052.841944,-918.843878,-9341.579430
3128.827365,248.853550,-1225.125171,-9399.007173
3128.829926,1531.406464,-1033.699363,-9360.722011
3128.832487,899.701298,-1837.687757,-9188.438784
3128.835048,478.564520,612.562586,-8901.300072
3128.837609,-248.853550,-2009.970984,-9073.583299
3128.840169,57.427742,-631.705166,-9073.583299
3128.842730,-593.420005,-918.843878,-9092.725880
3128.845291,-1990.828403,4785.645200,-8729.016845
3128.847852,-2316.252277,-555.134843,-8786.444587
3128.850413,-1397.408398,1895.115499,-8958.727814
3128.852976,-1225.125171,-153.140646,-9379.864592
3128.855540,-880.558717,823.130974,-9111.868461
3128.858103,-478.564520,1339.980656,-8824.729749
3128.860666,-1205.982590,1933.400661,-8901.300072
3128.863230,-1550.549045,803.988394,-9054.440718
3128.865793,-1263.410333,-2833.101958,-9092.725880
3128.868356,-2565.105827,3407.379382,-9054.440718
3128.870920,1167.697429,1110.269686,-9456.434915
3128.873483,-1703.689691,-1167.697429,-8767.302006
3128.876047,-1359.123237,2258.824534,-8901.300072
3128.878610,-3962.514226,555.134843,-8786.444587
3128.881173,-2928.814862,1971.685822,-8977.870395
3128.883737,-1780.260014,-1148.554848,-9303.294269
3128.886300,-1703.689691,2967.100024,-8882.157491
3128.888863,248.853550,-2048.256146,-9169.296203
3128.891427,612.562586,4364.508422,-8882.157491
3128.893990,344.566454,-6259.623922,-9188.438784
3128.896553,612.562586,2622.533570,-8997.012976
3128.899117,-287.138712,-3847.658741,-9437.292334
3128.901680,-248.853550,440.279358,-8920.442653
3128.904244,-497.707101,-421.136778,-8805.587168
3128.906807,-248.853550,-689.132909,-9169.296203
3128.909370,-382.851616,-689.132909,-9456.434915
3128.911934,574.277424,-1665.404530,-9016.155557
3128.914497,784.845813,-957.129040,-9131.011042
3128.917060,-1167.697429,-57.427742,-8958.727814
3128.919624,-1014.556782,727.418070,-8786.444587
3128.922187,133.998066,-2794.816797,-9418.149754
3128.924751,248.853550,-1435.693560,-9437.292334
3128.927314,1416.550979,-2258.824534,-9399.007173
3128.929877,1167.697429,401.994197,-9035.298138
3128.932441,267.996131,-823.130974,-9054.440718
3128.935004,-459.421939,-1091.127106,-8958.727814
3128.937567,325.423874,-2565.105827,-9092.725880
3128.940131,-2469.392923,1933.400661,-9150.153622
3128.942694,-2833.101958,3560.520029,-8901.300072
3128.945258,-1722.832272,325.423874,-8671.589102
3128.947821,-1148.554848,1282.552914,-9054.440718
3128.950384,-1205.982590,-267.996131,-9303.294269
3128.952948,-803.988394,114.855485,-9035.298138
3128.955513,-535.992262,1971.685822,-8805.587168
3128.958079,-823.130974,2086.541307,-8997.012976
3128.960645,-1014.556782,287.138712,-8843.872330
3128.963211,-2603.390989,-1052.841944,-9054.440718
3128.965776,-497.707101,1914.258080,-9379.864592
3128.968342,153.140646,-363.709035,-9245.866526
3128.970908,-1684.547110,2201.396792,-8671.589102
3128.973473,-1990.828403,937.986459,-8901.300072
3128.976039,-3809.373579,1741.974853,-8863.014910
3128.978605,-2354.537438,2067.398726,-9111.868461
3128.981171,-1684.547110,172.283227,-9073.583299
3128.983736,-631.705166,1263.410333,-9073.583299
3128.986302,535.992262,-114.855485,-9188.438784
3128.988868,-937.986459,440.279358,-8939.585234
3128.991433,478.564520,-4460.221326,-9188.438784
3128.993999,1378.265818,1780.260014,-8997.012976
3128.996565,344.566454,-3579.662610,-9322.436850
3128.999131,38.285162,1761.117434,-8633.303941
3129.001696,-1167.697429,-861.416136,-8939.585234
3129.004262,-803.988394,-19.142581,-9494.720077
3129.006828,19.142581,-2641.676150,-9418.149754
3129.009394,191.425808,-2067.398726,-9188.438784
3129.011959,459.421939,899.701298,-9016.155557
3129.014525,-267.996131,-1244.267752,-8824.729749
3129.017091,-248.853550,-1129.412267,-8882.157491
3129.019656,229.710970,-1378.265818,-9456.434915
3129.022222,593.420005,-2392.822600,-9399.007173
3129.024788,1722.832272,-708.275490,-9245.866526
3129.027354,689.132909,-803.988394,-9092.725880
3129.029919,-555.134843,-823.130974,-8901.300072
3129.032485,133.998066,-1895.115499,-9111.868461
3129.035051,-937.986459,-650.847747,-9111.868461
3129.037617,-2143.969050,4364.508422,-8920.442653
3129.040182,-2258.824534,-459.421939,-8843.872330
3129.042748,-1646.261949,2297.109696,-8958.727814
3129.045314,-1167.697429,-76.570323,-9379.864592
3129.047879,-1378.265818,478.564520,-9054.440718
3129.050445,-19.142581,1320.838075,-8977.870395
3129.053011,-1071.984525,1263.410333,-9016.155557
3129.055577,-803.988394,2182.254211,-8824.729749
3129.058144,-957.129040,1225.125171,-8805.587168
3129.060711,-995.414202,1454.836141,-8882.157491
3129.063279,38.285162,784.845813,-9379.864592
3129.065846,-1550.549045,1339.980656,-8901.300072
3129.068414,-2163.111630,1473.978722,-8882.157491
3129.070981,-3215.953574,976.271621,-8824.729749
3129.073549,-2392.822600,1588.834206,-8997.012976
3129.076116,-1320.838075,382.851616,-9169.296203
3129.078684,-1473.978722,1397.408398,-9111.868461
3129.081251,401.994197,-976.271621,-9245.866526
3129.083818,-689.132909,1569.691626,-8824.729749
3129.086386,880.558717,-4249.652938,-9169.296203
3129.088953,1416.550979,1416.550979,-8920.442653
3129.091521,172.283227,-2928.814862,-9322.436850
3129.094088,-421.136778,248.853550,-8920.442653
3129.096656,-1282.552914,-57.427742,-8863.014910
3129.099223,-593.420005,-57.427742,-9341.579430
3129.101791,-382.851616,-861.416136,-9131.011042
3129.104358,1378.265818,-746.560651,-8977.870395
3129.106926,-267.996131,-2411.965181,-8939.585234
3129.109493,-1914.258080,3503.092286,-8786.444587
3129.112060,210.568389,-3292.523898,-9035.298138
3129.114628,-248.853550,-1780.260014,-9226.723946
3129.117195,1895.115499,-1512.263883,-9609.575562
3129.119763,823.130974,-1722.832272,-9111.868461
3129.122330,421.136778,899.701298,-8977.870395
3129.124898,-459.421939,-2507.678085,-9092.725880
3129.127465,191.425808,191.425808,-9073.583299
3129.130033,-765.703232,-1741.974853,-9150.153622
3129.132600,-2316.252277,5781.059402,-8767.302006
3129.135167,-2373.680019,-2297.109696,-8977.870395
3129.137735,-1818.545176,3541.377448,-8901.300072
3129.140302,-1014.556782,-1091.127106,-9303.294269
3129.142870,-957.129040,1837.687757,-8977.870395
3129.145437,-574.277424,727.418070,-8920.442653
3129.148005,-631.705166,1071.984525,-9016.155557
3129.150572,-1282.552914,899.701298,-9131.011042
3129.153140,-1607.976787,-1569.691626,-9016.155557
3129.155707,-1416.550979,114.855485,-9131.011042
3129.158274,-555.134843,440.279358,-9207.581365
3129.160843,-1569.691626,2584.248408,-8786.444587
3129.163413,-1856.830338,1454.836141,-8748.159426
3129.165982,-2947.957443,1339.980656,-8748.159426
3129.168551,-2813.959378,1339.980656,-9131.011042
3129.171120,-1741.974853,612.562586,-9111.868461
3129.173689,-1167.697429,574.277424,-9016.155557
3129.176258,937.986459,1014.556782,-9226.723946
3129.178827,-689.132909,-976.271621,-8901.300072
3129.181396,344.566454,-2450.250342,-9207.581365
3129.183965,1205.982590,-784.845813,-9092.725880
3129.186534,306.281293,-2354.537438,-9207.581365
3129.189103,-344.566454,344.566454,-8901.300072
3129.191672,-1435.693560,191.425808,-8920.442653
3129.194241,-421.136778,-440.279358,-9437.292334
3129.196810,-229.710970,-1263.410333,-9169.296203
3129.199379,880.558717,-3522.234867,-9341.579430
3129.201948,-593.420005,1014.556782,-8958.727814
3129.204517,-612.562586,153.140646,-8843.872330
3129.207086,-535.992262,-976.271621,-8901.300072
3129.209655,325.423874,-555.134843,-9418.149754
3129.212224,1148.554848,-3943.371645,-9590.432981
3129.214794,1186.840010,995.414202,-9016.155557
3129.217363,478.564520,-2201.396792,-9092.725880
3129.219932,-114.855485,459.421939,-8786.444587
3129.222501,229.710970,-3273.381317,-9150.153622
3129.225070,-1895.115499,2660.818731,-9035.298138
3129.227639,-2450.250342,1416.550979,-9073.583299
3129.230208,-1741.974853,2507.678085,-8824.729749
3129.232777,-1531.406464,229.710970,-9131.011042
3129.235346,-1397.408398,784.845813,-9111.868461
3129.237915,-631.705166,-191.425808,-8939.585234
3129.240484,-382.851616,2182.254211,-8901.300072
3129.243053,-535.992262,1665.404530,-9265.009107
3129.245622,-995.414202,650.847747,-8939.585234
3129.248191,-1990.828403,-1435.693560,-8920.442653
3129.250760,-1378.265818,765.703232,-9322.436850
3129.253329,19.142581,1971.685822,-9226.723946
3129.255898,-2029.113565,995.414202,-8824.729749
3129.258467,-2507.678085,2009.970984,-8805.587168
3129.261036,-2737.389054,937.986459,-8882.157491
3129.263607,-2871.387120,1627.119368,-9092.725880
3129.266178,-1627.119368,-267.996131,-9284.151688
3129.268748,-899.701298,-191.425808,-9150.153622
3129.271319,803.988394,2756.531635,-8997.012976
3129.273889,574.277424,-4823.930362,-8977.870395
3129.276460,1397.408398,2392.822600,-9303.294269
3129.279031,-574.277424,-5302.494882,-9456.434915
3129.281601,-937.986459,-459.421939,-9111.868461
3129.284172,880.558717,631.705166,-8901.300072
3129.286742,-861.416136,-267.996131,-9016.155557
3129.289313,210.568389,-76.570323,-8977.870395
3129.291884,344.566454,-1339.980656,-9092.725880
3129.294454,535.992262,-1033.699363,-9188.438784
3129.297025,-210.568389,-1416.550979,-9150.153622
3129.299595,-1933.400661,516.849682,-9035.298138
3129.302166,746.560651,-1895.115499,-9379.864592
3129.304737,114.855485,-2354.537438,-9437.292334
3129.307307,1895.115499,-957.129040,-9284.151688
3129.309878,918.843878,-1129.412267,-9111.868461
3129.312448,-267.996131,-708.275490,-8882.157491
3129.315019,57.427742,-1646.261949,-9131.011042
3129.317590,-1339.980656,95.712904,-8997.012976
3129.320160,-1684.547110,3081.955509,-8901.300072
3129.322731,-2756.531635,765.703232,-8958.727814
3129.325301,-2009.970984,2067.398726,-9054.440718
3129.327872,-1397.408398,114.855485,-9207.581365
3129.330443,-1378.265818,689.132909,-8920.442653
3129.333013,-133.998066,1837.687757,-8958.727814
3129.335584,-574.277424,1205.982590,-8939.585234
3129.338154,-1416.550979,765.703232,-9073.583299
3129.340725,-823.130974,1493.121302,-8748.159426
3129.343296,-2297.109696,574.277424,-8901.300072
3129.345866,-287.138712,2488.535504,-9054.440718
3129.348437,-1110.269686,784.845813,-9073.583299
3129.351007,-2699.103893,2469.392923,-8595.018779
3129.353578,-2163.111630,727.418070,-9054.440718
3129.356149,-3120.240670,1990.828403,-8977.870395
3129.358719,-1416.550979,765.703232,-9360.722011
3129.361290,-1454.836141,95.712904,-9054.440718
3129.363860,1167.697429,2143.969050,-9073.583299
3129.366432,248.853550,-5742.774240,-8997.012976
3129.369003,899.701298,3043.670347,-9150.153622
3129.371575,-76.570323,-5800.201982,-9552.147819
3129.374146,-708.275490,-861.416136,-9131.011042
3129.376718,880.558717,133.998066,-8863.014910
3129.379289,-957.129040,325.423874,-8843.872330
3129.381860,-382.851616,-765.703232,-9322.436850
3129.384432,382.851616,-3522.234867,-9322.436850
3129.387003,-2105.683888,-1741.974853,-9035.298138
3129.389575,19.142581,3828.516160,-9035.298138
3129.392146,-19.142581,-3675.375514,-9016.155557
3129.394718,1263.410333,2105.683888,-8920.442653
3129.397289,114.855485,-4919.643266,-9533.005238
3129.399860,880.558717,1416.550979,-9207.581365
3129.402432,1627.119368,-3101.098090,-9245.866526
3129.405003,-153.140646,-2373.680019,-9016.155557
3129.407575,803.988394,248.853550,-9092.725880
3129.410146,-1493.121302,-1091.127106,-9073.583299
3129.412718,-2660.818731,5245.067139,-8920.442653
3129.415289,-2488.535504,-1856.830338,-8939.585234
3129.417861,-2067.398726,3598.805190,-8901.300072
3129.420432,-995.414202,-803.988394,-9303.294269
3129.423003,-1033.699363,1359.123237,-8843.872330
3129.425575,-478.564520,1454.836141,-8901.300072
3129.428146,-421.136778,1780.260014,-9073.583299
3129.430718,-1186.840010,1895.115499,-8997.012976
3129.433289,-1033.699363,-1875.972918,-8977.870395
3129.435861,-2048.256146,1339.980656,-8977.870395
3129.438432,76.570323,-287.138712,-9284.151688
3129.441003,-2182.254211,2124.826469,-8690.731683
3129.443575,-2507.678085,1818.545176,-8767.302006
3129.446146,-2833.101958,880.558717,-8920.442653
3129.448718,-2813.959378,937.986459,-9092.725880
3129.451289,-1741.974853,363.709035,-9207.581365
3129.453861,-918.843878,-19.142581,-9131.011042
3129.456432,746.560651,2871.387120,-9035.298138
3129.459004,114.855485,-4192.225195,-8882.157491
3129.461575,1263.410333,1741.974853,-9169.296203
3129.464146,-19.142581,-4862.215523,-9494.720077
3129.466718,-727.418070,-497.707101,-8958.727814
3129.469287,401.994197,1186.840010,-8920.442653
3129.471860,-784.845813,-784.845813,-8939.585234
3129.474432,-306.281293,-516.849682,-9322.436850
3129.477004,-746.560651,-3369.094221,-9322.436850
3129.479576,-899.701298,1205.982590,-9150.153622
3129.482149,-172.283227,-1493.121302,-9016.155557
3129.484721,-1263.410333,363.709035,-8690.731683
3129.487293,1148.554848,-1856.830338,-9456.434915
3129.489866,172.283227,-2239.681954,-9418.149754
3129.492438,2143.969050,-1071.984525,-9379.864592
3129.495010,803.988394,-1129.412267,-8958.727814
3129.497582,95.712904,-842.273555,-9073.583299
3129.500155,325.423874,-2354.537438,-8977.870395
3129.502727,-2277.967115,3062.812928,-8882.157491
3129.505299,-2737.389054,1263.410333,-9035.298138
3129.507871,-1914.258080,1837.687757,-8958.727814
3129.510444,-2105.683888,0.000000,-9188.438784
3129.513016,-1646.261949,1378.265818,-9150.153622
3129.515588,-976.271621,-535.992262,-8939.585234
3129.518160,-708.275490,2182.254211,-8939.585234
3129.520733,38.285162,1225.125171,-9188.438784
3129.523305,-1282.552914,1569.691626,-8977.870395
3129.525877,-1646.261949,-1416.550979,-8958.727814
3129.528449,-1607.976787,325.423874,-9054.440718
3129.531022,-784.845813,2258.824534,-9207.581365
3129.533594,-2124.826469,1646.261949,-8805.587168
3129.536166,-2220.539373,1971.685822,-8843.872330
3129.538738,-2182.254211,803.988394,-9016.155557
3129.541311,-2354.537438,1378.265818,-8997.012976
3129.543883,-1378.265818,19.142581,-9265.009107
3129.546455,-57.427742,803.988394,-9207.581365
3129.549028,-478.564520,325.423874,-9054.440718
3129.551600,823.130974,-3771.088418,-8958.727814
3129.554172,1741.974853,1416.550979,-9169.296203
3129.556744,478.564520,-2699.103893,-9245.866526
3129.559317,-516.849682,-57.427742,-8977.870395
3129.561889,-650.847747,172.283227,-8997.012976
3129.564461,-593.420005,-421.136778,-9150.153622
3129.567033,-421.136778,-2048.256146,-9341.579430
3129.569606,-210.568389,-3254.238736,-9092.725880
3129.572179,-765.703232,-114.855485,-9092.725880
3129.574752,-746.560651,555.134843,-9131.011042
3129.577325,-38.285162,-957.129040,-9226.723946
3129.579898,976.271621,-2354.537438,-9303.294269
3129.582471,1607.976787,-1512.263883,-9418.149754
3129.585044,976.271621,-1435.693560,-9188.438784
3129.587617,172.283227,-1091.127106,-9111.868461
3129.590190,325.423874,-1512.263883,-9131.011042
3129.592764,-669.990328,-19.142581,-8997.012976
3129.595337,-2124.826469,3426.521963,-8709.874264
3129.597910,-2928.814862,344.566454,-8939.585234
3129.600483,-1741.974853,1741.974853,-9188.438784
3129.603056,-1607.976787,-76.570323,-9207.581365
3129.605629,-1416.550979,1320.838075,-8882.157491
3129.608202,-497.707101,899.701298,-8920.442653
3129.610775,-765.703232,2335.394858,-8767.302006
3129.613348,-631.705166,612.562586,-9092.725880
3129.615921,-1952.543242,1167.697429,-8939.585234
3129.618495,-2450.250342,-555.134843,-9360.722011
3129.621068,-210.568389,2584.248408,-9073.583299
3129.623641,-1052.841944,1186.840010,-9054.440718
3129.626214,-2392.822600,1818.545176,-8671.589102
3129.628787,-2507.678085,918.843878,-8939.585234
3129.631360,-2813.959378,1320.838075,-8939.585234
3129.633933,-1971.685822,1512.263883,-9207.581365
3129.636506,-478.564520,-1435.693560,-9265.009107
3129.639079,95.712904,3043.670347,-8863.014910
3129.641652,823.130974,-6106.483275,-8977.870395
3129.644226,1550.549045,3541.377448,-9073.583299
3129.646799,95.712904,-5225.924558,-9513.862658
3129.649372,-976.271621,-497.707101,-9016.155557
3129.651945,440.279358,38.285162,-9054.440718
3129.654518,-823.130974,-1014.556782,-9322.436850
3129.657091,-153.140646,-153.140646,-9131.011042
3129.659664,574.277424,19.142581,-9188.438784
3129.662237,267.996131,-4115.654872,-9418.149754
3129.664810,-1990.828403,95.712904,-8920.442653
3129.667383,-1014.556782,937.986459,-9169.296203
3129.669956,344.566454,-2297.109696,-9111.868461
3129.672530,1933.400661,-1282.552914,-9418.149754
3129.675103,1665.404530,-4019.941968,-9399.007173
3129.677676,-114.855485,1129.412267,-8939.585234
3129.680250,631.705166,-2852.244539,-9169.296203
3129.682823,-1167.697429,440.279358,-8843.872330
3129.685397,-1359.123237,2277.967115,-8863.014910
3129.687970,-3120.240670,2258.824534,-8729.016845
3129.690543,-2163.111630,880.558717,-9303.294269
3129.693117,-1225.125171,-229.710970,-9188.438784
3129.695690,-2009.970984,976.271621,-8958.727814
3129.698264,-57.427742,574.277424,-8958.727814
3129.700837,-1301.695494,1818.545176,-8920.442653
3129.703410,516.849682,1607.976787,-9150.153622
3129.705984,-2163.111630,-1588.834206,-9054.440718
3129.708557,-2182.254211,1091.127106,-9245.866526
