#time,accel_x,accel_y,accel_z
2044.891132,-0.000000,-74617.701505,2368.659014
2044.893656,296.082377,-74617.701505,2220.617826
2044.896179,-148.041188,-74158.044206,1332.370696
2044.898703,-888.247130,-73698.386908,-0.000000
2044.901227,296.082377,-74311.263306,2220.617826
2044.903750,888.247130,-74004.825107,2812.782580
2044.906284,-148.041188,-74464.482406,1776.494261
2044.908817,148.041188,-74004.825107,148.041188
2044.911351,-148.041188,-74004.825107,592.164754
2044.913884,-888.247130,-74004.825107,148.041188
2044.916418,-148.041188,-74158.044206,3108.864956
2044.918952,888.247130,-73698.386908,3552.988522
2044.921485,4737.318029,-74004.825107,740.205942
2044.924019,-1480.411884,-73085.510509,9918.759623
2044.926552,10955.047942,-75690.235202,-2812.782580
2044.929086,17912.983796,-71706.538613,-0.000000
2044.931619,-8734.430116,-76456.330700,5921.647536
2044.934153,9030.512492,-73698.386908,-12435.459826
2044.936686,-148.041188,-74770.920605,-6365.771101
2044.939220,24870.919651,-75996.673402,-14952.160028
2044.941753,-740.205942,-73698.386908,-8586.388927
2044.944287,2960.823768,-71706.538613,-296.082377
2044.946820,15840.407159,-71553.319513,-888.247130
2044.949354,-148.041188,-75537.016103,8290.306550
2044.951887,592.164754,-76762.768900,3404.947333
2044.954421,1924.535449,-75077.358804,1184.329507
2044.956955,-10807.006753,-73851.606007,7550.100608
2044.959488,-8290.306550,-71859.757712,3997.112087
2044.962022,-296.082377,-73085.510509,5625.565159
2044.964555,2516.700203,-75077.358804,6365.771101
2044.967089,5625.565159,-75690.235202,2812.782580
2044.969622,-1480.411884,-74004.825107,5477.523971
2044.972156,-7698.141797,-72779.072310,3849.070898
2044.974689,-7550.100608,-73545.167808,7698.141797
2044.977223,4293.194464,-73238.729609,5773.606348
2044.979756,7402.059420,-74158.044206,4737.318029
2044.982290,-740.205942,-73391.948708,-1036.288319
2044.984823,-6513.812290,-74770.920605,-2664.741391
2044.987357,3552.988522,-71706.538613,-6809.894666
2044.989890,1776.494261,-73085.510509,1332.370696
2044.992424,-2368.659014,-75230.577904,8438.347739
2044.994958,1776.494261,-75537.016103,-6217.729913
2044.997491,-5921.647536,-75383.797003,10066.800811
2045.000025,-6217.729913,-72932.291410,-592.164754
2045.002558,12435.459826,-70634.004916,7402.059420
2045.005092,-6365.771101,-73698.386908,11547.212695
2045.007634,4589.276840,-73851.606007,8290.306550
2045.010176,-2368.659014,-73545.167808,9474.636058
2045.012718,-1036.288319,-74464.482406,3849.070898
2045.015260,-12583.501014,-73085.510509,-148.041188
2045.017802,3997.112087,-73391.948708,2812.782580
2045.020344,7698.141797,-72932.291410,-1332.370696
2045.022886,-14508.036463,-72779.072310,148.041188
2045.025428,-296.082377,-72932.291410,6365.771101
2045.027970,-5477.523971,-75383.797003,10362.883188
2045.030512,-3256.906145,-76609.549800,1036.288319
2045.033054,9326.594869,-75690.235202,2664.741391
2045.035596,-10510.924376,-72472.634111,1924.535449
2045.038138,-9326.594869,-72166.195912,-296.082377
2045.040680,24574.837274,-74770.920605,-4441.235652
2045.043222,-13323.706956,-73698.386908,-14656.077652
2045.045764,-1036.288319,-71553.319513,-5033.400406
2045.048306,9326.594869,-74617.701505,2812.782580
2045.050848,1776.494261,-73391.948708,-2072.576638
2045.053390,6365.771101,-75077.358804,4293.194464
2045.055932,444.123565,-75996.673402,-6957.935855
2045.058474,-3997.112087,-73698.386908,-7846.182985
2045.061016,17764.942608,-75077.358804,-2072.576638
2045.063558,1924.535449,-73238.729609,-5921.647536
2045.066100,-3849.070898,-73545.167808,-2812.782580
2045.068642,18209.066173,-75230.577904,-0.000000
2045.071184,-7846.182985,-75077.358804,-3552.988522
2045.073726,3849.070898,-74311.263306,2516.700203
2045.076268,13915.871710,-72932.291410,-2664.741391
2045.078810,-15100.201217,-72932.291410,-6513.812290
2045.081352,4293.194464,-76609.549800,4145.153275
2045.083894,-8142.265362,-74464.482406,-5033.400406
2045.086436,16580.613101,-72625.853210,-12287.418637
2045.088985,1480.411884,-74924.139704,7994.224174
2045.091534,15248.242405,-73085.510509,2812.782580
2045.094083,-2368.659014,-74924.139704,10066.800811
2045.096632,27239.578666,-73238.729609,-10807.006753
2045.099181,-11991.336260,-73698.386908,-8142.265362
2045.101730,-23538.548956,-76149.892501,-6365.771101
2045.104279,18357.107362,-74004.825107,-3256.906145
2045.106828,-8290.306550,-74924.139704,-6069.688724
2045.109377,7550.100608,-72319.415011,-8438.347739
2045.111927,10066.800811,-74464.482406,-2516.700203
2045.114476,740.205942,-73698.386908,-4885.359217
2045.117025,8586.388927,-74004.825107,2220.617826
2045.119574,3997.112087,-75077.358804,1332.370696
2045.122123,-3552.988522,-73851.606007,-5329.482782
2045.124672,10510.924376,-74311.263306,-11399.171507
2045.127221,4885.359217,-75537.016103,-10066.800811
2045.129770,7402.059420,-72779.072310,-6513.812290
2045.132319,-7105.977043,-71400.100414,5625.565159
2045.134868,4145.153275,-71706.538613,-3108.864956
2045.137418,-9326.594869,-73238.729609,4737.318029
2045.139967,444.123565,-76915.987999,-3849.070898
2045.142516,-7105.977043,-73851.606007,10362.883188
2045.145065,-5477.523971,-74617.701505,3108.864956
2045.147614,6069.688724,-73851.606007,4589.276840
2045.150163,-8586.388927,-73085.510509,-2812.782580
2045.152712,-5329.482782,-72166.195912,148.041188
2045.155261,-7402.059420,-73085.510509,11103.089130
2045.157810,888.247130,-75077.358804,6661.853478
2045.160359,-3108.864956,-75077.358804,8734.430116
2045.162909,3849.070898,-75230.577904,4885.359217
2045.165458,-6661.853478,-73851.606007,4293.194464
2045.168007,-13915.871710,-73851.606007,1776.494261
2045.170556,-3256.906145,-74004.825107,5033.400406
2045.173105,6513.812290,-74311.263306,10214.842000
2045.175654,-14211.954086,-74158.044206,5033.400406
2045.178203,-9770.718434,-74464.482406,9326.594869
2045.180752,-12583.501014,-75230.577904,-4145.153275
2045.183301,8586.388927,-73238.729609,-2220.617826
2045.185850,-9030.512492,-75537.016103,15248.242405
2045.188400,21465.972318,-73391.948708,-1628.453072
2045.190956,-3849.070898,-74617.701505,15692.365970
2045.193511,-5033.400406,-72932.291410,-8734.430116
2045.196065,5181.441594,-72932.291410,1184.329507
2045.198620,-16580.613101,-74770.920605,11695.253884
2045.201174,8290.306550,-72472.634111,10362.883188
2045.203729,-1480.411884,-74311.263306,17468.860231
2045.206284,4589.276840,-75230.577904,1036.288319
2045.208838,-9474.636058,-74311.263306,-1776.494261
2045.211393,-2960.823768,-74464.482406,-1480.411884
2045.213947,4441.235652,-72166.195912,2368.659014
2045.216502,-7550.100608,-74464.482406,13323.706956
2045.219057,-5181.441594,-72625.853210,10510.924376
2045.221611,296.082377,-74464.482406,6069.688724
2045.224166,592.164754,-76303.111601,2812.782580
2045.226720,740.205942,-74464.482406,2516.700203
2045.229275,-1924.535449,-74004.825107,10807.006753
2045.231829,-13471.748144,-72779.072310,-13471.748144
2045.234384,8586.388927,-74158.044206,-10807.006753
2045.236939,5329.482782,-76303.111601,-6809.894666
2045.239493,1776.494261,-72625.853210,-8882.471304
2045.242048,-2516.700203,-72166.195912,1036.288319
2045.244602,14063.912898,-73851.606007,-1332.370696
2045.247157,-4441.235652,-73545.167808,4441.235652
2045.249711,8882.471304,-76762.768900,-5329.482782
2045.252266,9326.594869,-74924.139704,-14952.160028
2045.254821,-14804.118840,-73851.606007,-3701.029710
2045.257375,18653.189738,-73238.729609,-1036.288319
2045.259930,2516.700203,-72932.291410,-1480.411884
2045.262484,1184.329507,-74464.482406,-2072.576638
2045.265039,19097.313304,-74617.701505,-5329.482782
2045.267594,-6513.812290,-74770.920605,-1480.411884
2045.270148,11103.089130,-72932.291410,1332.370696
2045.272703,12731.542202,-73391.948708,-8142.265362
2045.275257,2516.700203,-74158.044206,-7550.100608
2045.277812,1628.453072,-76303.111601,2220.617826
2045.280366,148.041188,-73851.606007,1036.288319
2045.282921,4589.276840,-72625.853210,1184.329507
2045.285476,-0.000000,-75537.016103,6365.771101
2045.288030,3108.864956,-72932.291410,-7994.224174
2045.290585,10955.047942,-73851.606007,1184.329507
2045.293144,-148.041188,-76149.892501,-7254.018232
2045.295704,-13915.871710,-73391.948708,-14063.912898
2045.298263,296.082377,-76303.111601,1776.494261
2045.300823,16728.654289,-73545.167808,-7105.977043
2045.303382,-5181.441594,-73698.386908,3997.112087
2045.305941,14063.912898,-75230.577904,888.247130
2045.308501,3849.070898,-73851.606007,-592.164754
2045.311060,-12731.542202,-74311.263306,3997.112087
2045.313620,17764.942608,-75690.235202,-5181.441594
2045.316179,-1332.370696,-74924.139704,-7994.224174
2045.318739,11991.336260,-74311.263306,-10955.047942
2045.321298,-148.041188,-72319.415011,-1628.453072
2045.323858,-11251.130318,-71246.881314,4885.359217
2045.326417,9918.759623,-72625.853210,6217.729913
2045.328976,5773.606348,-76915.987999,11103.089130
2045.331536,-17616.901420,-77835.302597,10066.800811
2045.334095,12583.501014,-74004.825107,7254.018232
2045.336655,-12287.418637,-74464.482406,8734.430116
2045.339214,2664.741391,-73851.606007,3997.112087
2045.341774,444.123565,-75230.577904,6661.853478
2045.344333,-11103.089130,-74924.139704,-592.164754
2045.346893,-2368.659014,-72625.853210,7105.977043
2045.349452,4737.318029,-75383.797003,6365.771101
2045.352011,-5477.523971,-74004.825107,9474.636058
2045.354571,-1924.535449,-75230.577904,7550.100608
2045.357130,-4737.318029,-74311.263306,6809.894666
2045.359690,-10214.842000,-73698.386908,-0.000000
2045.362249,10658.965565,-73545.167808,1036.288319
2045.364809,-3552.988522,-73545.167808,5921.647536
2045.367368,-6069.688724,-75537.016103,16136.489536
2045.369928,-2960.823768,-72779.072310,4293.194464
2045.372487,13175.665768,-73545.167808,-888.247130
2045.375046,-11991.336260,-75996.673402,1184.329507
2045.377606,3997.112087,-75690.235202,-1924.535449
2045.380165,-3701.029710,-71706.538613,13915.871710
2045.382725,-20725.766376,-75843.454302,5773.606348
2045.385284,11843.295072,-71553.319513,5033.400406
2045.387844,-9474.636058,-75230.577904,13323.706956
2045.390403,-5477.523971,-74617.701505,3552.988522
2045.392963,-6957.935855,-73545.167808,12731.542202
2045.395525,2220.617826,-74770.920605,7994.224174
2045.398088,-2072.576638,-75383.797003,-0.000000
2045.400651,-9178.553681,-74004.825107,-2220.617826
2045.403214,-8438.347739,-72472.634111,1776.494261
2045.405777,-4589.276840,-73391.948708,9918.759623
2045.408340,-7402.059420,-74924.139704,9770.718434
2045.410903,10214.842000,-74924.139704,7550.100608
2045.413466,148.041188,-76915.987999,8290.306550
2045.416029,-9918.759623,-73698.386908,8290.306550
2045.418592,-5033.400406,-74311.263306,296.082377
2045.421155,11251.130318,-75690.235202,1924.535449
2045.423718,3256.906145,-75383.797003,-14063.912898
2045.426281,1480.411884,-72166.195912,-5625.565159
2045.428844,1480.411884,-72166.195912,740.205942
2045.431407,7698.141797,-74004.825107,592.164754
2045.433970,-5625.565159,-75077.358804,6217.729913
2045.436533,11547.212695,-75690.235202,-9770.718434
2045.439096,-5181.441594,-75537.016103,-3552.988522
2045.441658,-11103.089130,-74464.482406,-2072.576638
2045.444221,13471.748144,-72319.415011,-3552.988522
2045.446784,-296.082377,-72932.291410,-1776.494261
2045.449347,6513.812290,-74617.701505,-4737.318029
2045.451910,7550.100608,-73391.948708,-7254.018232
2045.454473,888.247130,-74924.139704,2812.782580
2045.457036,9178.553681,-73391.948708,-296.082377
2045.459599,10214.842000,-74158.044206,9178.553681
2045.462162,-13619.789333,-72932.291410,2220.617826
2045.464725,32272.979071,-73545.167808,-18505.148550
2045.467288,-27091.537477,-75383.797003,9178.553681
2045.469851,26055.249158,-75077.358804,-7698.141797
2045.472414,2812.782580,-72012.976812,7105.977043
2045.474977,-15100.201217,-76915.987999,-4589.276840
2045.477540,31828.855506,-73238.729609,-9030.512492
2045.480103,-10214.842000,-76149.892501,-3256.906145
2045.482666,-444.123565,-74311.263306,-11991.336260
2045.485229,6809.894666,-73545.167808,-3256.906145
2045.487791,-2960.823768,-74004.825107,-4145.153275
2045.490354,5625.565159,-73851.606007,-740.205942
2045.492917,2516.700203,-75230.577904,4885.359217
2045.495480,2960.823768,-74770.920605,1628.453072
2045.498046,8290.306550,-74464.482406,-4293.194464
2045.500612,9622.677246,-74924.139704,-7846.182985
2045.503178,4737.318029,-72625.853210,-12583.501014
2045.505744,-4737.318029,-72625.853210,-2072.576638
2045.508309,740.205942,-73391.948708,6365.771101
2045.510875,-296.082377,-74770.920605,17024.736666
2045.513441,296.082377,-77375.645298,10214.842000
2045.516007,-9178.553681,-76915.987999,5181.441594
2045.518573,4737.318029,-74158.044206,3256.906145
2045.521139,-5033.400406,-73238.729609,6069.688724
2045.523705,2664.741391,-73545.167808,5181.441594
2045.526270,-2220.617826,-73851.606007,8438.347739
2045.528836,-6217.729913,-74464.482406,2516.700203
2045.531402,-9474.636058,-73391.948708,5033.400406
2045.533968,-2516.700203,-74770.920605,7994.224174
2045.536534,6513.812290,-75077.358804,9474.636058
2045.539100,-10510.924376,-74004.825107,5773.606348
2045.541665,-4589.276840,-74311.263306,7402.059420
2045.544231,-13471.748144,-73085.510509,4589.276840
2045.546797,-13767.830521,-75230.577904,6069.688724
2045.549363,8142.265362,-72932.291410,1036.288319
2045.551929,-1184.329507,-74464.482406,4293.194464
2045.554495,888.247130,-72625.853210,6513.812290
2045.557061,1184.329507,-74464.482406,-148.041188
2045.559626,-13027.624579,-75690.235202,10510.924376
2045.562192,-2072.576638,-74617.701505,1036.288319
2045.564758,296.082377,-71246.881314,9178.553681
2045.567324,1924.535449,-72779.072310,4737.318029
2045.569890,5329.482782,-73851.606007,13323.706956
2045.572456,-7698.141797,-74004.825107,11103.089130
2045.575021,-1036.288319,-74924.139704,3997.112087
2045.577587,-5773.606348,-73851.606007,5181.441594
2045.580153,2664.741391,-73545.167808,2516.700203
2045.582719,296.082377,-73391.948708,-1184.329507
2045.585285,-13471.748144,-72932.291410,3108.864956
2045.587851,-148.041188,-72932.291410,6217.729913
2045.590416,-3849.070898,-74464.482406,9770.718434
2045.592982,5921.647536,-76456.330700,5773.606348
2045.595548,444.123565,-74311.263306,7402.059420
2045.598114,-2220.617826,-74770.920605,8734.430116
2045.600682,-17764.942608,-74158.044206,-10362.883188
2045.603250,20577.725188,-74617.701505,-12435.459826
2045.605819,-8882.471304,-74158.044206,-15100.201217
2045.608387,3256.906145,-70634.004916,-4441.235652
2045.610955,10214.842000,-73085.510509,4885.359217
2045.613523,888.247130,-75077.358804,740.205942
2045.616092,3256.906145,-75843.454302,444.123565
2045.618660,1628.453072,-76762.768900,2960.823768
2045.621228,888.247130,-74158.044206,-13027.624579
2045.623796,3552.988522,-74158.044206,6069.688724
2045.626365,5625.565159,-72472.634111,-10362.883188
2045.628933,-6069.688724,-71706.538613,-6069.688724
2045.631501,-3256.906145,-75383.797003,-3256.906145
2045.634069,-1480.411884,-75690.235202,-2812.782580
2045.636637,-9918.759623,-75996.673402,5625.565159
2045.639206,12139.377449,-76609.549800,4589.276840
2045.641774,7254.018232,-72932.291410,4737.318029
2045.644342,-11695.253884,-75230.577904,-2072.576638
2045.646910,16432.571912,-73238.729609,-5921.647536
2045.649479,-19097.313304,-74770.920605,10510.924376
2045.652047,-7105.977043,-76149.892501,-5181.441594
2045.654615,16284.530724,-72625.853210,-9622.677246
2045.657183,-22502.260637,-77069.207099,592.164754
2045.659751,9622.677246,-74924.139704,-6069.688724
2045.662320,5181.441594,-74617.701505,-6217.729913
2045.664888,-2220.617826,-74311.263306,-10066.800811
2045.667456,2072.576638,-73545.167808,-4589.276840
2045.670024,5033.400406,-75230.577904,-296.082377
2045.672593,-1332.370696,-74924.139704,2960.823768
2045.675161,1628.453072,-75383.797003,3404.947333
2045.677729,9474.636058,-75537.016103,-2516.700203
2045.680297,6809.894666,-73545.167808,-14063.912898
2045.682866,-1184.329507,-73545.167808,-8586.388927
2045.685434,-4737.318029,-71859.757712,4441.235652
2045.688002,8882.471304,-72779.072310,2960.823768
2045.690570,-14063.912898,-74004.825107,6365.771101
2045.693138,4293.194464,-75690.235202,1184.329507
2045.695707,-10658.965565,-76303.111601,15100.201217
2045.698275,-2516.700203,-73698.386908,-2664.741391
2045.700843,-2516.700203,-72166.195912,8438.347739
2045.703413,-2220.617826,-74004.825107,6069.688724
2045.705984,-1184.329507,-72625.853210,3404.947333
2045.708554,-9178.553681,-73391.948708,10658.965565
2045.711124,-1332.370696,-73545.167808,1332.370696
2045.713695,-2812.782580,-74004.825107,1480.411884
2045.716265,2072.576638,-75383.797003,9770.718434
2045.718835,-9770.718434,-74158.044206,9326.594869
2045.721405,1628.453072,-74158.044206,5329.482782
2045.723976,-2960.823768,-72472.634111,4293.194464
2045.726546,-14508.036463,-76303.111601,-1924.535449
2045.729116,9178.553681,-74158.044206,2516.700203
2045.731687,-13471.748144,-76149.892501,19245.354492
2045.734257,296.082377,-73698.386908,-3997.112087
2045.736827,10510.924376,-74158.044206,-1776.494261
2045.739397,-21021.848753,-75077.358804,10807.006753
2045.741968,444.123565,-73085.510509,888.247130
2045.744538,-13323.706956,-72012.976812,16728.654289
2045.747108,-6217.729913,-74158.044206,14508.036463
2045.749679,2812.782580,-73085.510509,6661.853478
2045.752249,-5773.606348,-75230.577904,12139.377449
2045.754819,-5329.482782,-74311.263306,-5921.647536
2045.757390,-3701.029710,-74004.825107,3701.029710
2045.759960,-1332.370696,-73698.386908,5181.441594
2045.762530,-4589.276840,-72012.976812,9030.512492
2045.765100,-8586.388927,-74464.482406,13767.830521
2045.767671,5033.400406,-74617.701505,3404.947333
2045.770241,444.123565,-76303.111601,3701.029710
2045.772811,-11251.130318,-76456.330700,12435.459826
2045.775382,6661.853478,-73545.167808,7698.141797
2045.777952,-4589.276840,-76303.111601,-1924.535449
2045.780522,7550.100608,-73391.948708,-12731.542202
2045.783092,-444.123565,-73698.386908,1480.411884
2045.785663,9178.553681,-73238.729609,-2664.741391
2045.788233,148.041188,-72472.634111,5033.400406
2045.790803,2220.617826,-76303.111601,4441.235652
2045.793374,5329.482782,-75996.673402,-5625.565159
2045.795944,-2220.617826,-75383.797003,3997.112087
2045.798514,7846.182985,-75537.016103,-4293.194464
2045.801084,2960.823768,-73085.510509,740.205942
2045.803655,592.164754,-73698.386908,-592.164754
2045.806227,6365.771101,-73851.606007,-8438.347739
2045.808799,10066.800811,-73085.510509,-3256.906145
2045.811371,7550.100608,-72779.072310,-1924.535449
2045.813943,9178.553681,-72932.291410,4885.359217
2045.816515,-17024.736666,-74004.825107,-3701.029710
2045.819087,22650.301825,-71400.100414,-17764.942608
2045.821659,-10658.965565,-76456.330700,3701.029710
2045.824231,3108.864956,-76149.892501,5033.400406
2045.826803,11399.171507,-72012.976812,6809.894666
2045.829375,2072.576638,-75537.016103,-6513.812290
2045.831947,13323.706956,-72166.195912,-13767.830521
2045.834519,7550.100608,-74158.044206,-11251.130318
2045.837091,6365.771101,-71553.319513,-7550.100608
2045.839663,3997.112087,-73238.729609,-5329.482782
2045.842235,6957.935855,-74770.920605,888.247130
2045.844807,-1924.535449,-74770.920605,-1628.453072
2045.847379,2516.700203,-74617.701505,-1184.329507
2045.849951,2220.617826,-75996.673402,-1480.411884
2045.852523,13471.748144,-74924.139704,-4737.318029
2045.855095,3108.864956,-74004.825107,-5477.523971
2045.857667,-3997.112087,-71859.757712,-7698.141797
2045.860239,3108.864956,-71859.757712,2516.700203
2045.862811,-7698.141797,-76456.330700,14656.077652
2045.865383,5477.523971,-76456.330700,8586.388927
2045.867955,-18801.230927,-76762.768900,14359.995275
2045.870527,9178.553681,-74924.139704,8734.430116
2045.873099,-8882.471304,-74311.263306,11547.212695
2045.875671,-0.000000,-74004.825107,-0.000000
2045.878243,-3404.947333,-74158.044206,7698.141797
2045.880815,-8586.388927,-74617.701505,9030.512492
2045.883387,-1628.453072,-73851.606007,11695.253884
2045.885959,-4293.194464,-75077.358804,9918.759623
2045.888531,1184.329507,-76149.892501,2220.617826
2045.891103,5921.647536,-74617.701505,2220.617826
2045.893675,-21614.013506,-75843.454302,10066.800811
2045.896247,-9178.553681,-74617.701505,8734.430116
2045.898819,8438.347739,-75383.797003,14804.118840
2045.901391,-14656.077652,-74004.825107,12731.542202
2045.903963,-2072.576638,-75690.235202,-11103.089130
2045.906535,5181.441594,-72932.291410,9178.553681
2045.909108,-43820.191766,-77222.426198,7698.141797
2045.911682,32272.979071,-71400.100414,-8142.265362
2045.914255,-30496.484810,-77682.083497,22354.219448
2045.916828,15692.365970,-74924.139704,-5181.441594
2045.919402,7402.059420,-73545.167808,13471.748144
2045.921975,-19985.560434,-77682.083497,16136.489536
2045.924548,-1036.288319,-74004.825107,1776.494261
2045.927122,-3701.029710,-76149.892501,12435.459826
2045.929695,-3997.112087,-72319.415011,-9326.594869
2045.932269,-13471.748144,-72625.853210,11843.295072
2045.934842,2960.823768,-72625.853210,8142.265362
2045.937415,6809.894666,-74617.701505,9030.512492
2045.939989,-6809.894666,-76456.330700,10362.883188
2045.942562,1776.494261,-75690.235202,2812.782580
2045.945135,-9474.636058,-74464.482406,8586.388927
2045.947709,-7550.100608,-74311.263306,-3849.070898
2045.950282,21762.054695,-74464.482406,-14359.995275
2045.952855,-14508.036463,-74004.825107,-12435.459826
2045.955429,8438.347739,-71553.319513,-6661.853478
2045.958002,4441.235652,-72932.291410,5329.482782
2045.960576,-444.123565,-75230.577904,888.247130
2045.963149,7254.018232,-75077.358804,2960.823768
2045.965722,-1332.370696,-77835.302597,-1480.411884
2045.968296,5033.400406,-73851.606007,-3997.112087
2045.970869,11547.212695,-75537.016103,-1036.288319
2045.973442,-3701.029710,-73238.729609,-8142.265362
2045.976016,3404.947333,-71553.319513,-4589.276840
2045.978589,5181.441594,-74770.920605,-2072.576638
2045.981162,-1480.411884,-74617.701505,-4885.359217
2045.983736,13767.830521,-71706.538613,-148.041188
2045.986309,10955.047942,-74617.701505,-13323.706956
2045.988883,6069.688724,-71400.100414,7105.977043
2045.991456,-20577.725188,-77069.207099,3849.070898
2045.994029,30200.402434,-73085.510509,-31680.814318
2045.996603,5033.400406,-73085.510509,11991.336260
2045.999176,888.247130,-75383.797003,-7402.059420
2046.001749,10807.006753,-71859.757712,-7254.018232
2046.004323,-16432.571912,-75537.016103,-1480.411884
2046.006896,22058.137072,-72012.976812,-22206.178260
2046.009469,-25018.960840,-75690.235202,2664.741391
2046.012043,6661.853478,-72779.072310,-9474.636058
2046.014617,9622.677246,-75230.577904,5033.400406
2046.017191,-13027.624579,-75537.016103,3849.070898
2046.019765,23686.590144,-75077.358804,-10807.006753
2046.022339,3108.864956,-75690.235202,-3404.947333
2046.024913,3108.864956,-71400.100414,-15248.242405
2046.027487,-7994.224174,-71093.662214,5033.400406
2046.030061,14211.954086,-72779.072310,-2960.823768
2046.032635,-9326.594869,-73238.729609,7105.977043
2046.035209,-3552.988522,-77069.207099,2072.576638
2046.037783,-4293.194464,-75230.577904,13767.830521
2046.040356,-8586.388927,-74617.701505,-1184.329507
2046.042930,2072.576638,-72472.634111,4441.235652
2046.045504,-6661.853478,-74464.482406,7846.182985
2046.048078,4441.235652,-73085.510509,2368.659014
2046.050652,-10955.047942,-73391.948708,6513.812290
2046.053226,-9474.636058,-73698.386908,8290.306550
2046.055800,2516.700203,-73085.510509,-148.041188
2046.058374,-4589.276840,-75690.235202,9918.759623
2046.060948,-148.041188,-73391.948708,2960.823768
2046.063522,-20133.601622,-76456.330700,14508.036463
2046.066096,-21762.054695,-73545.167808,-0.000000
2046.068670,-9474.636058,-76303.111601,6957.935855
2046.071243,4441.235652,-73391.948708,-17320.819043
2046.073817,14656.077652,-72472.634111,11103.089130
2046.076391,-42635.862259,-76303.111601,14063.912898
2046.078965,41007.409187,-70327.566716,-15544.324782
2046.081539,-34197.514520,-74924.139704,21169.889941
2046.084113,18505.148550,-70940.443115,-5329.482782
2046.086687,3256.906145,-75383.797003,24574.837274
2046.089261,-15544.324782,-78448.178995,148.041188
2046.091835,10362.883188,-72932.291410,1628.453072
2046.094409,-8586.388927,-75537.016103,11251.130318
2046.096983,-11251.130318,-72319.415011,-2516.700203
2046.099557,-5181.441594,-72779.072310,17616.901420
2046.102130,3108.864956,-73238.729609,8882.471304
2046.104704,3849.070898,-75077.358804,6365.771101
2046.107278,888.247130,-75537.016103,1924.535449
2046.109852,-6809.894666,-75690.235202,5033.400406
2046.112426,-8586.388927,-74770.920605,9178.553681
2046.115000,6365.771101,-74770.920605,3997.112087
2046.117575,18061.024985,-75230.577904,-14804.118840
2046.120149,-16136.489536,-73545.167808,-2072.576638
2046.122723,20873.807564,-74311.263306,-2516.700203
2046.125297,-8734.430116,-73545.167808,1332.370696
2046.127872,-7254.018232,-74924.139704,4441.235652
2046.130446,17764.942608,-76303.111601,-2516.700203
2046.133020,-3849.070898,-75383.797003,-0.000000
2046.135594,10510.924376,-75077.358804,-2220.617826
2046.138169,11399.171507,-74004.825107,-2368.659014
2046.140743,-17320.819043,-73391.948708,-8734.430116
2046.143317,22354.219448,-73391.948708,-888.247130
2046.145892,14804.118840,-77222.426198,-3108.864956
2046.148466,-11547.212695,-73238.729609,-7698.141797
2046.151040,19393.395680,-74770.920605,-4737.318029
2046.153614,4293.194464,-73851.606007,9622.677246
2046.156189,-11399.171507,-74311.263306,-4589.276840
2046.158763,45892.768404,-72625.853210,-7698.141797
2046.161337,-37602.461854,-76762.768900,17616.901420
2046.163911,25167.002028,-72472.634111,-20873.807564
2046.166486,12139.377449,-72779.072310,-3701.029710
2046.169060,-14359.995275,-74770.920605,-12435.459826
2046.171634,14508.036463,-72319.415011,-6809.894666
2046.174208,-3108.864956,-75077.358804,-1628.453072
2046.176783,5033.400406,-73085.510509,-7402.059420
2046.179357,2368.659014,-75383.797003,4885.359217
2046.181931,2368.659014,-75230.577904,-3849.070898
2046.184505,3108.864956,-76762.768900,-5477.523971
2046.187080,9474.636058,-74924.139704,-3404.947333
2046.189654,-2072.576638,-72166.195912,-2664.741391
2046.192228,-9622.677246,-72166.195912,-3108.864956
2046.194802,7254.018232,-71553.319513,-4589.276840
2046.197378,-6217.729913,-74158.044206,7698.141797
2046.199953,-3701.029710,-75537.016103,2368.659014
2046.202528,-4145.153275,-76303.111601,14656.077652
2046.205103,-10510.924376,-75690.235202,7994.224174
2046.207678,7254.018232,-72472.634111,-1924.535449
2046.210253,-14211.954086,-73085.510509,2220.617826
2046.212828,-2812.782580,-73545.167808,3997.112087
2046.215403,-4145.153275,-73238.729609,11991.336260
2046.217978,-5477.523971,-74004.825107,6069.688724
2046.220553,-2516.700203,-73698.386908,4737.318029
2046.223128,-2516.700203,-75690.235202,3849.070898
2046.225703,13471.748144,-73545.167808,888.247130
2046.228278,-7105.977043,-72472.634111,8290.306550
2046.230853,-8438.347739,-71706.538613,-2812.782580
2046.233428,4589.276840,-74617.701505,-9918.759623
2046.236003,-2812.782580,-74158.044206,13027.624579
2046.238578,-296.082377,-75077.358804,-5773.606348
2046.241153,8882.471304,-71400.100414,10510.924376
2046.243728,-23686.590144,-75690.235202,16876.695478
2046.246303,1332.370696,-73698.386908,2664.741391
2046.248878,-16136.489536,-74924.139704,12435.459826
2046.251453,5033.400406,-74004.825107,888.247130
2046.254029,-6513.812290,-75537.016103,15840.407159
2046.256604,1480.411884,-73851.606007,2368.659014
2046.259179,-3552.988522,-72779.072310,3849.070898
2046.261754,-15692.365970,-73085.510509,9770.718434
2046.264329,-2368.659014,-72472.634111,1036.288319
2046.266904,4885.359217,-75537.016103,8586.388927
2046.269479,4145.153275,-76149.892501,3256.906145
2046.272054,-8734.430116,-74617.701505,7698.141797
2046.274629,-8290.306550,-73698.386908,4293.194464
2046.277204,1924.535449,-75077.358804,2960.823768
2046.279779,13027.624579,-74617.701505,-7846.182985
2046.282354,7994.224174,-73085.510509,-1332.370696
2046.284929,8290.306550,-73238.729609,-5773.606348
2046.287504,-3701.029710,-72472.634111,-3256.906145
2046.290079,-2664.741391,-74158.044206,-0.000000
2046.292654,10807.006753,-74464.482406,-1628.453072
2046.295229,4441.235652,-75537.016103,-888.247130
2046.297804,8734.430116,-74770.920605,-6365.771101
2046.300350,4145.153275,-74158.044206,-3404.947333
2046.302896,888.247130,-74004.825107,-7105.977043
2046.305442,148.041188,-75383.797003,592.164754
2046.307989,-1036.288319,-76303.111601,-1628.453072
2046.310535,4885.359217,-75996.673402,2664.741391
2046.313081,-7846.182985,-74924.139704,12583.501014
2046.315627,-1036.288319,-74924.139704,-8586.388927
2046.318173,740.205942,-74158.044206,-5625.565159
2046.320719,5033.400406,-75383.797003,-5921.647536
2046.323265,1332.370696,-75383.797003,1184.329507
2046.325811,9622.677246,-73085.510509,-7254.018232
2046.328358,14804.118840,-73545.167808,-5033.400406
2046.330904,2960.823768,-73238.729609,-5921.647536
2046.333450,15988.448347,-72166.195912,-10066.800811
2046.335996,-3404.947333,-73545.167808,-4589.276840
2046.338542,2664.741391,-75690.235202,-2960.823768
2046.341088,7994.224174,-75077.358804,-888.247130
2046.343634,-740.205942,-76762.768900,-4737.318029
2046.346180,8882.471304,-74617.701505,-2960.823768
2046.348727,3849.070898,-73698.386908,-1776.494261
2046.351273,-2516.700203,-71553.319513,-2960.823768
2046.353819,1776.494261,-72625.853210,-6069.688724
2046.356365,-2664.741391,-73545.167808,2220.617826
2046.358911,-7105.977043,-76303.111601,1924.535449
2046.361457,-7550.100608,-75077.358804,16728.654289
2046.364003,-2664.741391,-75383.797003,4145.153275
2046.366549,10658.965565,-74158.044206,2812.782580
2046.369096,-7105.977043,-74311.263306,1628.453072
2046.371642,-5329.482782,-72625.853210,2072.576638
2046.374188,-10510.924376,-72932.291410,12435.459826
2046.376734,-1924.535449,-74158.044206,12879.583391
2046.379280,5477.523971,-73238.729609,4589.276840
2046.381826,-4441.235652,-75230.577904,4737.318029
2046.384372,-9030.512492,-74311.263306,1628.453072
2046.386918,-4589.276840,-75230.577904,10362.883188
2046.389465,5329.482782,-74311.263306,19985.560434
2046.392011,-13027.624579,-73698.386908,7550.100608
2046.394557,-6809.894666,-76303.111601,-3108.864956
2046.397103,24426.796086,-73238.729609,-9622.677246
2046.399649,-30496.484810,-73851.606007,19393.395680
2046.402201,-4589.276840,-72472.634111,5329.482782
2046.404752,7550.100608,-72472.634111,21614.013506
2046.407304,-4885.359217,-74311.263306,2072.576638
2046.409855,11103.089130,-74158.044206,6513.812290
2046.412407,-7846.182985,-75996.673402,9622.677246
2046.414958,-5625.565159,-73391.948708,296.082377
2046.417510,-8586.388927,-72472.634111,18061.024985
2046.420062,-0.000000,-73698.386908,9326.594869
2046.422613,1036.288319,-72932.291410,3256.906145
2046.425165,-1924.535449,-75690.235202,-2220.617826
2046.427716,1332.370696,-76149.892501,1776.494261
2046.430268,-6069.688724,-74158.044206,13915.871710
2046.432819,-4589.276840,-75230.577904,5477.523971
2046.435371,22354.219448,-74158.044206,-13471.748144
2046.437922,-11103.089130,-74464.482406,-4737.318029
2046.440474,16284.530724,-73238.729609,-10658.965565
2046.443026,-1480.411884,-73238.729609,2368.659014
2046.445577,3997.112087,-73238.729609,-6957.935855
2046.448129,-444.123565,-72779.072310,-148.041188
2046.450680,-2664.741391,-76303.111601,-2960.823768
2046.453232,9622.677246,-74617.701505,-6365.771101
2046.455783,-3404.947333,-75077.358804,2516.700203
2046.458335,8438.347739,-75077.358804,-3997.112087
2046.460887,-8142.265362,-73698.386908,-5477.523971
2046.463438,3552.988522,-76456.330700,-6365.771101
2046.465990,7994.224174,-74158.044206,-5625.565159
2046.468541,12879.583391,-73085.510509,-1184.329507
2046.471093,-1628.453072,-73391.948708,7994.224174
2046.473644,2960.823768,-74617.701505,-7846.182985
2046.476196,7846.182985,-73391.948708,-5477.523971
2046.478747,-7846.182985,-77222.426198,-444.123565
2046.481299,15396.283594,-74311.263306,-4737.318029
2046.483851,-9474.636058,-74770.920605,-8142.265362
2046.486402,6365.771101,-72625.853210,-14359.995275
2046.488954,1332.370696,-72932.291410,-4885.359217
2046.491505,-148.041188,-75230.577904,296.082377
2046.494057,3404.947333,-73238.729609,2516.700203
2046.496608,8734.430116,-75843.454302,-2664.741391
2046.499160,7105.977043,-74924.139704,-8882.471304
2046.501712,3108.864956,-74158.044206,-7698.141797
2046.504268,-3256.906145,-73238.729609,2072.576638
2046.506824,1036.288319,-73238.729609,1924.535449
2046.509380,-1924.535449,-74311.263306,10066.800811
2046.511937,3404.947333,-74924.139704,10658.965565
2046.514493,-14804.118840,-75843.454302,9326.594869
2046.517049,1036.288319,-74770.920605,8734.430116
2046.519605,-12731.542202,-75537.016103,10510.924376
2046.522162,8438.347739,-74617.701505,5033.400406
2046.524718,-444.123565,-73391.948708,8438.347739
2046.527274,-9918.759623,-74770.920605,10807.006753
2046.529830,-7254.018232,-73085.510509,5773.606348
2046.532387,-7846.182985,-73851.606007,10214.842000
2046.534943,6365.771101,-75077.358804,4293.194464
2046.537499,-5181.441594,-75843.454302,8438.347739
2046.540056,-6957.935855,-76609.549800,8586.388927
2046.542612,-9770.718434,-76149.892501,6957.935855
2046.545168,-444.123565,-73085.510509,9918.759623
2046.547724,-14359.995275,-75537.016103,2368.659014
2046.550281,6217.729913,-74004.825107,1332.370696
2046.552837,2220.617826,-72472.634111,3404.947333
2046.555393,-2664.741391,-71400.100414,9770.718434
2046.557949,1480.411884,-71706.538613,9178.553681
2046.560506,-6365.771101,-74158.044206,14952.160028
2046.563062,-3701.029710,-75690.235202,10066.800811
2046.565618,4145.153275,-76303.111601,6661.853478
2046.568175,-4885.359217,-73851.606007,8142.265362
2046.570731,-6661.853478,-73085.510509,9770.718434
2046.573287,-14952.160028,-73238.729609,7698.141797
2046.575843,5033.400406,-73545.167808,5773.606348
2046.578400,5033.400406,-75077.358804,7105.977043
2046.580956,-2664.741391,-74924.139704,4145.153275
2046.583512,-5033.400406,-74617.701505,9326.594869
2046.586068,-6365.771101,-74770.920605,444.123565
2046.588625,14804.118840,-75230.577904,-8734.430116
2046.591181,4589.276840,-74770.920605,1480.411884
2046.593737,7550.100608,-74770.920605,-7550.100608
2046.596294,-2812.782580,-73391.948708,-3849.070898
2046.598850,1776.494261,-74617.701505,-1480.411884
2046.601406,2516.700203,-74770.920605,-0.000000
2046.603962,-1480.411884,-74311.263306,1480.411884
2046.606523,12583.501014,-75230.577904,-4441.235652
2046.609083,-4293.194464,-75077.358804,-1924.535449
2046.611643,4293.194464,-74924.139704,-7550.100608
2046.614203,11991.336260,-72779.072310,-592.164754
2046.616764,20281.642811,-74770.920605,-1036.288319
2046.619324,13619.789333,-71093.662214,-11547.212695
2046.621884,6069.688724,-73391.948708,24130.713709
2046.624445,-22206.178260,-75690.235202,5921.647536
2046.627005,39971.120868,-70940.443115,-27387.619854
2046.629565,-20577.725188,-75230.577904,11103.089130
2046.632126,33753.390955,-75690.235202,-14656.077652
2046.634686,-2664.741391,-73851.606007,740.205942
2046.637246,-10066.800811,-74004.825107,-17024.736666
2046.639806,21614.013506,-70787.224015,-13767.830521
2046.642367,-3552.988522,-73545.167808,7402.059420
2046.644927,10066.800811,-73085.510509,-8734.430116
2046.647487,8734.430116,-75843.454302,2516.700203
2046.650048,2664.741391,-74770.920605,-10510.924376
2046.652608,6513.812290,-74617.701505,-2960.823768
2046.655168,-3849.070898,-74004.825107,4145.153275
2046.657728,3997.112087,-72319.415011,-1036.288319
2046.660289,-148.041188,-74158.044206,4589.276840
2046.662849,-444.123565,-75077.358804,5625.565159
2046.665409,-11547.212695,-75690.235202,5477.523971
2046.667970,-1036.288319,-74158.044206,11991.336260
2046.670530,-9770.718434,-74158.044206,10510.924376
2046.673090,6661.853478,-74311.263306,3849.070898
2046.675650,-4737.318029,-74617.701505,2220.617826
2046.678211,-9918.759623,-73698.386908,1628.453072
2046.680771,-9178.553681,-72779.072310,7254.018232
2046.683331,-5625.565159,-75077.358804,17024.736666
2046.685892,5033.400406,-74464.482406,8290.306550
2046.688452,9918.759623,-74311.263306,2812.782580
2046.691012,-10214.842000,-72625.853210,148.041188
2046.693573,-17320.819043,-73851.606007,8438.347739
2046.696133,-17172.777854,-74770.920605,9178.553681
2046.698693,3108.864956,-72779.072310,-2072.576638
2046.701253,3997.112087,-77069.207099,-5921.647536
2046.703814,-6957.935855,-72779.072310,6809.894666
2046.706374,3552.988522,-72472.634111,9622.677246
2046.708937,-2368.659014,-71706.538613,12287.418637
2046.711500,-8734.430116,-72319.415011,10955.047942
2046.714063,2516.700203,-74311.263306,6513.812290
2046.716626,-0.000000,-75230.577904,7105.977043
2046.719188,-4145.153275,-74924.139704,5773.606348
2046.721751,-7254.018232,-73085.510509,7550.100608
2046.724314,-6957.935855,-73545.167808,8734.430116
2046.726877,8882.471304,-74770.920605,6069.688724
2046.729440,-4589.276840,-74770.920605,1184.329507
2046.732003,-4441.235652,-73545.167808,3256.906145
2046.734566,-5477.523971,-73085.510509,-2368.659014
2046.737129,9770.718434,-75843.454302,-7550.100608
2046.739692,9918.759623,-74004.825107,-6365.771101
2046.742255,6809.894666,-73851.606007,-6513.812290
2046.744817,-12139.377449,-73391.948708,-8290.306550
2046.747380,6957.935855,-73545.167808,-1776.494261
2046.749943,2664.741391,-75077.358804,4441.235652
2046.752506,6661.853478,-74464.482406,-4441.235652
2046.755069,4441.235652,-74311.263306,1776.494261
2046.757632,-1628.453072,-76149.892501,-6957.935855
2046.760195,1036.288319,-73698.386908,-2220.617826
2046.762758,16580.613101,-74004.825107,1628.453072
2046.765321,5033.400406,-73085.510509,-8586.388927
2046.767884,-5329.482782,-72012.976812,-9622.677246
2046.770447,18653.189738,-73545.167808,-12435.459826
2046.773009,15100.201217,-71706.538613,-296.082377
2046.775572,-28423.908173,-76456.330700,7846.182985
2046.778135,35381.844028,-75690.235202,-8586.388927
2046.780698,-19985.560434,-75537.016103,-2516.700203
2046.783261,1332.370696,-75077.358804,-12139.377449
2046.785824,19097.313304,-75996.673402,-4145.153275
2046.788387,-22502.260637,-75996.673402,-9770.718434
2046.790950,296.082377,-71400.100414,-6069.688724
2046.793513,10510.924376,-75383.797003,4737.318029
2046.796076,-3108.864956,-74311.263306,-7550.100608
2046.798638,19097.313304,-75230.577904,-3404.947333
2046.801201,-2960.823768,-74617.701505,-6217.729913
2046.803764,-7550.100608,-72012.976812,444.123565
2046.806327,12139.377449,-74158.044206,3552.988522
2046.808890,-9326.594869,-74158.044206,740.205942
2046.811455,2368.659014,-74770.920605,5033.400406
2046.814021,-9474.636058,-75537.016103,11547.212695
2046.816586,-5921.647536,-74770.920605,9178.553681
2046.819152,-6365.771101,-75537.016103,17616.901420
2046.821717,6217.729913,-74770.920605,6513.812290
2046.824283,-5329.482782,-74770.920605,6217.729913
2046.826848,-3997.112087,-74464.482406,3552.988522
2046.829413,-10214.842000,-73238.729609,7254.018232
2046.831979,-4145.153275,-74311.263306,12139.377449
2046.834544,-0.000000,-75996.673402,10362.883188
2046.837110,1184.329507,-74770.920605,8438.347739
2046.839675,7254.018232,-73698.386908,6069.688724
2046.842240,-11399.171507,-73391.948708,10807.006753
2046.844806,-1036.288319,-72932.291410,-148.041188
2046.847371,4293.194464,-74158.044206,148.041188
2046.849937,-5477.523971,-73698.386908,4885.359217
2046.852502,-10658.965565,-74924.139704,11843.295072
2046.855067,-13619.789333,-75077.358804,12287.418637
2046.857633,-16876.695478,-74158.044206,11991.336260
2046.860198,-3997.112087,-75077.358804,10362.883188
2046.862764,-1480.411884,-74311.263306,10658.965565
2046.865329,-1776.494261,-75077.358804,7550.100608
2046.867895,-1924.535449,-73851.606007,8438.347739
2046.870460,-6513.812290,-73391.948708,3552.988522
2046.873025,-2812.782580,-74004.825107,2368.659014
2046.875591,888.247130,-75537.016103,7105.977043
2046.878156,-1184.329507,-73545.167808,9326.594869
2046.880722,-10214.842000,-73851.606007,5477.523971
2046.883287,4441.235652,-75996.673402,-1480.411884
2046.885852,7994.224174,-74158.044206,-12731.542202
2046.888418,1332.370696,-73698.386908,2960.823768
2046.890983,10214.842000,-73545.167808,-5033.400406
2046.893549,1924.535449,-72779.072310,-2072.576638
2046.896114,-4589.276840,-74004.825107,-6069.688724
2046.898679,13619.789333,-74617.701505,-6365.771101
2046.901245,740.205942,-74311.263306,4441.235652
2046.903810,7550.100608,-75690.235202,-2664.741391
2046.906376,8734.430116,-74158.044206,740.205942
2046.908941,10510.924376,-72012.976812,-7698.141797
2046.911507,8142.265362,-73238.729609,-8734.430116
2046.914074,10066.800811,-74004.825107,-11251.130318
2046.916642,11843.295072,-74004.825107,8882.471304
2046.919209,-7550.100608,-75690.235202,3552.988522
2046.921777,20281.642811,-72472.634111,3256.906145
2046.924344,-7254.018232,-73545.167808,-592.164754
2046.926912,13619.789333,-74770.920605,-15840.407159
2046.929479,9770.718434,-73391.948708,-4589.276840
2046.932047,-15396.283594,-75690.235202,-14804.118840
2046.934614,5033.400406,-72012.976812,-4441.235652
2046.937182,3849.070898,-76915.987999,4885.359217
2046.939749,-1480.411884,-73698.386908,-3256.906145
2046.942317,7550.100608,-75690.235202,-5773.606348
2046.944884,11251.130318,-74770.920605,-9770.718434
2046.947452,-3701.029710,-73085.510509,-6069.688724
2046.950019,-1776.494261,-72625.853210,4885.359217
2046.952587,16432.571912,-73391.948708,-888.247130
2046.955154,-14656.077652,-74617.701505,1332.370696
2046.957722,9474.636058,-72779.072310,-3552.988522
2046.960289,-22798.343014,-76609.549800,15988.448347
2046.962857,-9622.677246,-74311.263306,4145.153275
2046.965424,5033.400406,-72166.195912,12287.418637
2046.967992,-888.247130,-74924.139704,5773.606348
2046.970559,-148.041188,-74158.044206,2368.659014
2046.973127,-14211.954086,-74004.825107,7698.141797
2046.975694,-8438.347739,-73851.606007,9178.553681
2046.978262,-2220.617826,-74004.825107,11695.253884
2046.980829,5625.565159,-74158.044206,7994.224174
2046.983397,14804.118840,-74464.482406,2220.617826
2046.985964,1776.494261,-72779.072310,888.247130
2046.988532,-9474.636058,-72166.195912,9622.677246
2046.991099,-8290.306550,-75843.454302,3701.029710
2046.993667,23390.507767,-73698.386908,-296.082377
2046.996234,-14804.118840,-74464.482406,11991.336260
2046.998802,-16284.530724,-74617.701505,3997.112087
2047.001369,-0.000000,-73698.386908,16728.654289
2047.003937,-14952.160028,-75383.797003,11547.212695
2047.006504,-740.205942,-74924.139704,5181.441594
2047.009072,-13619.789333,-73698.386908,15988.448347
2047.011639,5625.565159,-74464.482406,5033.400406
2047.014207,-4885.359217,-74004.825107,5033.400406
2047.016747,-4441.235652,-74770.920605,148.041188
2047.019287,-2072.576638,-73545.167808,148.041188
2047.021827,-4293.194464,-74158.044206,13915.871710
2047.024367,-7698.141797,-74464.482406,8882.471304
2047.026907,12287.418637,-75996.673402,-3108.864956
2047.029447,17320.819043,-75383.797003,-10955.047942
2047.031987,-2960.823768,-74004.825107,1036.288319
2047.034527,12879.583391,-73545.167808,-4441.235652
2047.037067,10066.800811,-72932.291410,-1036.288319
2047.039606,-4737.318029,-74617.701505,-3997.112087
2047.042146,13323.706956,-74464.482406,-10214.842000
2047.044686,1480.411884,-75537.016103,2812.782580
2047.047226,7105.977043,-74617.701505,-4145.153275
2047.049766,3256.906145,-73851.606007,-0.000000
2047.052306,1480.411884,-72932.291410,-8438.347739
2047.054846,20429.683999,-74464.482406,-1480.411884
2047.057386,14359.995275,-75230.577904,-13323.706956
2047.059926,-296.082377,-74770.920605,10214.842000
2047.062466,-4293.194464,-73545.167808,6513.812290
2047.065006,5921.647536,-72779.072310,-8734.430116
2047.067546,-2516.700203,-75537.016103,-6809.894666
2047.070086,19689.478057,-73085.510509,-5033.400406
2047.072626,16728.654289,-72932.291410,-13175.665768
2047.075166,-8882.471304,-75077.358804,-8734.430116
2047.077706,296.082377,-73545.167808,-5181.441594
2047.080246,1036.288319,-74004.825107,-1924.535449
2047.082786,8586.388927,-74158.044206,-7994.224174
2047.085326,16580.613101,-75537.016103,-4145.153275
2047.087866,2960.823768,-74770.920605,-6365.771101
2047.090406,-5033.400406,-72319.415011,-3849.070898
2047.092946,148.041188,-72319.415011,5477.523971
2047.095486,-4145.153275,-75230.577904,4589.276840
2047.098026,1480.411884,-75077.358804,8882.471304
2047.100566,-13619.789333,-75843.454302,8586.388927
2047.103106,4885.359217,-73545.167808,5625.565159
2047.105646,-12435.459826,-74464.482406,11991.336260
2047.108186,8734.430116,-73851.606007,2516.700203
2047.110726,-9622.677246,-73545.167808,10214.842000
2047.113266,-8438.347739,-75230.577904,9030.512492
2047.115806,-2960.823768,-72932.291410,8882.471304
2047.118352,-15544.324782,-73238.729609,6217.729913
2047.120899,6365.771101,-73391.948708,2664.741391
2047.123446,4145.153275,-74158.044206,4589.276840
2047.125993,-4441.235652,-73545.167808,3997.112087
2047.128539,-5625.565159,-74158.044206,-4441.235652
2047.131086,-6217.729913,-72166.195912,3552.988522
2047.133633,-14656.077652,-75230.577904,-6809.894666
2047.136180,11103.089130,-73851.606007,14063.912898
2047.138727,-148.041188,-74158.044206,10214.842000
2047.141273,-3108.864956,-72932.291410,12287.418637
2047.143820,-13027.624579,-74311.263306,9918.759623
2047.146367,-10510.924376,-74617.701505,5329.482782
2047.148914,-15396.283594,-73851.606007,16284.530724
2047.151460,-2664.741391,-74464.482406,6513.812290
2047.154007,7994.224174,-72779.072310,7254.018232
2047.156554,-740.205942,-75537.016103,3404.947333
2047.159101,-3552.988522,-73238.729609,1036.288319
2047.161648,-16284.530724,-73545.167808,14211.954086
2047.164194,-1480.411884,-73545.167808,7994.224174
2047.166741,7402.059420,-75996.673402,-148.041188
2047.169288,13027.624579,-75537.016103,-10214.842000
2047.171835,10510.924376,-73238.729609,-2664.741391
2047.174381,-6069.688724,-74464.482406,-3108.864956
2047.176928,9030.512492,-72012.976812,-1036.288319
2047.179475,-2960.823768,-74924.139704,-3849.070898
2047.182022,8882.471304,-73545.167808,-10362.883188
2047.184568,7698.141797,-74924.139704,1036.288319
2047.187115,2220.617826,-75383.797003,-3997.112087
2047.189662,-7994.224174,-72932.291410,-1628.453072
2047.192209,-2220.617826,-75690.235202,-1480.411884
2047.194756,-4145.153275,-72319.415011,-15988.448347
2047.197302,18357.107362,-74004.825107,-14211.954086
2047.199849,7550.100608,-72779.072310,11399.171507
2047.202396,10807.006753,-75690.235202,-444.123565
2047.204943,-1184.329507,-72779.072310,1332.370696
2047.207489,-1332.370696,-75843.454302,-2516.700203
2047.210036,11991.336260,-73545.167808,-14804.118840
2047.212583,2664.741391,-72932.291410,-6809.894666
2047.215130,2960.823768,-73851.606007,-14508.036463
2047.217676,-4737.318029,-72012.976812,-3256.906145
2047.220231,3552.988522,-75537.016103,-3849.070898
2047.222784,2960.823768,-75690.235202,-5477.523971
2047.225336,6513.812290,-75843.454302,-2812.782580
2047.227889,1628.453072,-73851.606007,-444.123565
2047.230442,-1776.494261,-72932.291410,3849.070898
2047.232995,4441.235652,-72625.853210,-8882.471304
2047.235548,-6217.729913,-72625.853210,888.247130
2047.238100,-1776.494261,-75996.673402,-592.164754
2047.240653,-11103.089130,-74311.263306,17764.942608
2047.243206,3256.906145,-74158.044206,3404.947333
2047.245759,13915.871710,-72472.634111,6365.771101
2047.248311,-6809.894666,-74004.825107,5477.523971
2047.250864,-2960.823768,-73085.510509,740.205942
2047.253417,-13915.871710,-73238.729609,15100.201217
2047.255970,-3552.988522,-73545.167808,10214.842000
2047.258522,148.041188,-73391.948708,9622.677246
2047.261075,-5477.523971,-76456.330700,6069.688724
2047.263628,444.123565,-72932.291410,-5625.565159
2047.266181,6661.853478,-73238.729609,-2368.659014
2047.268734,-15988.448347,-73698.386908,23094.425390
2047.271286,-8586.388927,-74311.263306,-9326.594869
2047.273839,22650.301825,-70327.566716,1332.370696
2047.276392,-23094.425390,-76303.111601,11103.089130
2047.278945,16876.695478,-70787.224015,3256.906145
2047.281497,-0.000000,-74770.920605,28275.866984
2047.284050,-15840.407159,-75383.797003,12583.501014
2047.286603,9770.718434,-72166.195912,14211.954086
2047.289156,-14211.954086,-75230.577904,11991.336260
2047.291708,7254.018232,-72472.634111,-3256.906145
2047.294261,-592.164754,-74617.701505,7698.141797
2047.296814,5329.482782,-73851.606007,-888.247130
2047.299367,-21614.013506,-73085.510509,11991.336260
2047.301920,-23982.672521,-74158.044206,4589.276840
2047.304472,37306.379477,-75690.235202,-7698.141797
2047.307025,-4737.318029,-76149.892501,-7846.182985
2047.309578,16580.613101,-72625.853210,-6365.771101
2047.312131,-1924.535449,-73698.386908,-4145.153275
2047.314683,-2072.576638,-72012.976812,-5477.523971
2047.317236,7254.018232,-74617.701505,-888.247130
2047.319789,7550.100608,-75077.358804,-12139.377449
2047.322346,3552.988522,-73085.510509,-5477.523971
2047.324903,8290.306550,-75537.016103,-1184.329507
2047.327460,4145.153275,-72472.634111,-4145.153275
2047.330017,-444.123565,-71706.538613,-2960.823768
2047.332574,1776.494261,-72932.291410,-8290.306550
2047.335131,2220.617826,-74004.825107,-15100.201217
2047.337688,5181.441594,-72625.853210,8882.471304
2047.340245,-4441.235652,-75843.454302,19097.313304
2047.342802,16728.654289,-73851.606007,-11695.253884
2047.345359,15396.283594,-72932.291410,-7550.100608
2047.347916,740.205942,-75843.454302,-15100.201217
2047.350473,9918.759623,-72779.072310,-5921.647536
2047.353030,6957.935855,-75077.358804,-3404.947333
2047.355587,-148.041188,-72779.072310,-6365.771101
2047.358144,8734.430116,-74004.825107,-9622.677246
2047.360701,11991.336260,-75230.577904,-6217.729913
2047.363258,2220.617826,-73391.948708,-5329.482782
2047.365815,-4293.194464,-73545.167808,6069.688724
2047.368372,11547.212695,-72932.291410,592.164754
2047.370929,-8438.347739,-74004.825107,3849.070898
2047.373486,8882.471304,-73391.948708,-2812.782580
2047.376043,-16432.571912,-74924.139704,11251.130318
2047.378600,-1776.494261,-74924.139704,4589.276840
2047.381157,1480.411884,-73698.386908,16136.489536
2047.383714,1924.535449,-74770.920605,6513.812290
2047.386271,2368.659014,-73085.510509,5181.441594
2047.388828,-15692.365970,-74770.920605,5477.523971
2047.391385,-5181.441594,-74004.825107,10510.924376
2047.393942,-5921.647536,-73391.948708,14804.118840
2047.396499,-5625.565159,-77069.207099,7846.182985
2047.399056,1184.329507,-74924.139704,1628.453072
2047.401613,-2072.576638,-75077.358804,10955.047942
2047.404173,-14359.995275,-74311.263306,-3849.070898
2047.406734,-592.164754,-74617.701505,6809.894666
2047.409295,3701.029710,-72319.415011,6069.688724
2047.411855,-6809.894666,-74770.920605,10066.800811
2047.414416,-10658.965565,-75690.235202,12731.542202
2047.416977,1036.288319,-75077.358804,13027.624579
2047.419537,-14211.954086,-75537.016103,12139.377449
2047.422098,-3552.988522,-73545.167808,16876.695478
2047.424659,-3701.029710,-75383.797003,14211.954086
2047.427220,2664.741391,-74004.825107,2516.700203
2047.429780,-7550.100608,-74464.482406,-1332.370696
2047.432341,-8290.306550,-74004.825107,-2368.659014
2047.434902,-5181.441594,-72932.291410,13027.624579
2047.437462,-9178.553681,-74311.263306,5921.647536
2047.440023,22946.384202,-74770.920605,-10362.883188
2047.442584,-2516.700203,-75996.673402,-6217.729913
2047.445144,10510.924376,-74158.044206,-8882.471304
2047.447705,-3256.906145,-73391.948708,-2072.576638
2047.450266,6217.729913,-72932.291410,-5625.565159
2047.452827,2220.617826,-73085.510509,-2516.700203
2047.455387,6957.935855,-75230.577904,-10807.006753
2047.457948,15100.201217,-74311.263306,-4293.194464
2047.460509,-11695.253884,-75077.358804,592.164754
2047.463069,5625.565159,-72779.072310,-2368.659014
2047.465630,7254.018232,-74311.263306,-0.000000
2047.468191,-10214.842000,-76303.111601,5181.441594
2047.470751,-10955.047942,-74004.825107,-296.082377
2047.473312,16580.613101,-73698.386908,-13175.665768
2047.475873,7846.182985,-71706.538613,-3108.864956
2047.478434,-1924.535449,-76456.330700,-2072.576638
2047.480994,23834.631332,-73238.729609,-12287.418637
2047.483555,-1924.535449,-73085.510509,-7402.059420
2047.486116,17468.860231,-72166.195912,-14656.077652
2047.488676,7550.100608,-73391.948708,-2072.576638
2047.491237,5033.400406,-75383.797003,-11547.212695
2047.493798,9030.512492,-74158.044206,-7105.977043
2047.496359,2368.659014,-76456.330700,-1924.535449
2047.498919,-0.000000,-74004.825107,3997.112087
2047.501480,1332.370696,-73545.167808,6809.894666
2047.504041,9770.718434,-73851.606007,-5329.482782
2047.506575,-3849.070898,-73391.948708,2960.823768
2047.509110,-22502.260637,-76762.768900,3108.864956
2047.511645,1332.370696,-72779.072310,7402.059420
2047.514180,-9770.718434,-74617.701505,13915.871710
2047.516715,10510.924376,-74004.825107,4589.276840
2047.519250,-1628.453072,-74617.701505,10362.883188
2047.521785,-2664.741391,-73851.606007,592.164754
2047.524320,-19245.354492,-73545.167808,13767.830521
2047.526854,-8882.471304,-74770.920605,11991.336260
2047.529389,20725.766376,-72166.195912,5477.523971
2047.531924,2664.741391,-76149.892501,10066.800811
2047.534459,-4589.276840,-72779.072310,8586.388927
2047.536994,-9474.636058,-74617.701505,-2664.741391
2047.539529,-3849.070898,-73851.606007,-888.247130
2047.542064,-2516.700203,-71859.757712,7550.100608
2047.544598,-12583.501014,-74770.920605,9030.512492
2047.547133,-11547.212695,-74464.482406,9030.512492
2047.549668,-5329.482782,-75383.797003,12583.501014
2047.552203,-11399.171507,-73851.606007,11399.171507
2047.554738,-9178.553681,-74770.920605,15544.324782
2047.557273,-5181.441594,-74617.701505,13323.706956
2047.559808,148.041188,-74158.044206,4293.194464
2047.562342,-6217.729913,-74004.825107,-3849.070898
2047.564877,-20873.807564,-72779.072310,1628.453072
2047.567412,5033.400406,-72472.634111,12435.459826
2047.569947,-12139.377449,-74464.482406,2516.700203
2047.572482,25315.043216,-74158.044206,-12435.459826
2047.575017,-3849.070898,-75230.577904,-1776.494261
2047.577552,11547.212695,-72779.072310,-12287.418637
2047.580086,-2812.782580,-72932.291410,-2368.659014
2047.582621,-2072.576638,-73085.510509,-9030.512492
2047.585156,-6957.935855,-73545.167808,-3256.906145
2047.587691,19097.313304,-76149.892501,-2220.617826
2047.590226,7698.141797,-74004.825107,-4441.235652
2047.592761,444.123565,-74464.482406,2220.617826
2047.595296,10214.842000,-74004.825107,-2368.659014
2047.597830,-10955.047942,-74617.701505,-1036.288319
2047.600365,12879.583391,-74158.044206,1036.288319
2047.602900,17764.942608,-74464.482406,11251.130318
2047.605435,-14952.160028,-74311.263306,4441.235652
2047.607978,21614.013506,-73238.729609,-9178.553681
2047.610521,-13323.706956,-76456.330700,-1036.288319
2047.613064,11251.130318,-74311.263306,-13175.665768
2047.615607,7994.224174,-74617.701505,-1480.411884
2047.618150,-888.247130,-73238.729609,-13619.789333
2047.620693,11251.130318,-73851.606007,-444.123565
2047.623236,592.164754,-76762.768900,-444.123565
2047.625779,13619.789333,-74311.263306,-9030.512492
2047.628322,-4441.235652,-75077.358804,3552.988522
2047.630865,6365.771101,-73238.729609,-296.082377
2047.633408,4737.318029,-72319.415011,-3108.864956
2047.635951,-13323.706956,-75077.358804,4145.153275
2047.638494,6809.894666,-73698.386908,1776.494261
2047.641037,-14656.077652,-74924.139704,18357.107362
2047.643580,-592.164754,-74617.701505,2368.659014
2047.646123,2072.576638,-73851.606007,11251.130318
2047.648666,-3849.070898,-74770.920605,3404.947333
2047.651209,-1184.329507,-72472.634111,4737.318029
2047.653752,-15840.407159,-74617.701505,14063.912898
2047.656295,-148.041188,-73085.510509,7254.018232
2047.658838,-11991.336260,-75077.358804,11695.253884
2047.661381,-3552.988522,-76149.892501,3701.029710
2047.663924,888.247130,-74770.920605,8882.471304
2047.666467,-6661.853478,-74617.701505,-148.041188
2047.669010,6661.853478,-72932.291410,-1184.329507
2047.671553,-5033.400406,-73698.386908,12879.583391
2047.674096,-9474.636058,-74464.482406,4737.318029
2047.676639,-9770.718434,-75383.797003,7402.059420
2047.679182,-5181.441594,-72625.853210,10955.047942
2047.681725,-8882.471304,-73698.386908,8290.306550
2047.684268,-2812.782580,-71859.757712,18357.107362
2047.686810,-1332.370696,-75383.797003,11251.130318
2047.689353,-1480.411884,-74004.825107,2960.823768
2047.691896,-9474.636058,-75077.358804,-2812.782580
2047.694439,3108.864956,-72932.291410,740.205942
2047.696982,-3552.988522,-72625.853210,13027.624579
2047.699525,-4589.276840,-74311.263306,1776.494261
2047.702068,23390.507767,-74464.482406,-11843.295072
2047.704611,-2812.782580,-75996.673402,-4589.276840
2047.707154,11103.089130,-73391.948708,-7254.018232
2047.709704,-2220.617826,-73391.948708,-3404.947333
2047.712254,-5773.606348,-72932.291410,-8290.306550
2047.714804,4145.153275,-72472.634111,-148.041188
2047.717354,18653.189738,-76303.111601,-4145.153275
2047.719904,3404.947333,-73698.386908,-3552.988522
2047.722454,-296.082377,-75843.454302,148.041188
2047.725005,5181.441594,-73545.167808,-4885.359217
2047.727555,-6365.771101,-71553.319513,-11251.130318
2047.730105,23686.590144,-75077.358804,-6513.812290
2047.732655,6957.935855,-73851.606007,14804.118840
2047.735205,-13471.748144,-75843.454302,16432.571912
2047.737755,18505.148550,-73085.510509,-10362.883188
2047.740305,-2960.823768,-74311.263306,-6661.853478
2047.742855,-2516.700203,-75690.235202,-16876.695478
2047.745405,15100.201217,-74770.920605,1036.288319
2047.747955,-5181.441594,-74617.701505,-8882.471304
2047.750505,9178.553681,-72625.853210,-11843.295072
2047.753055,9622.677246,-75230.577904,-3997.112087
2047.755605,148.041188,-75077.358804,-5773.606348
2047.758155,-3404.947333,-73238.729609,3404.947333
2047.760705,7254.018232,-74770.920605,5773.606348
2047.763255,2220.617826,-74770.920605,888.247130
2047.765805,-4885.359217,-74924.139704,2368.659014
2047.768355,-10658.965565,-74617.701505,296.082377
2047.770905,-9474.636058,-72932.291410,10066.800811
2047.773455,-8290.306550,-74770.920605,13619.789333
2047.776005,13619.789333,-73698.386908,5033.400406
2047.778555,-4293.194464,-75077.358804,10955.047942
2047.781105,-5477.523971,-74464.482406,3256.906145
2047.783655,-16876.695478,-72932.291410,12287.418637
2047.786205,-7105.977043,-74004.825107,9918.759623
2047.788755,-2516.700203,-75383.797003,10066.800811
2047.791305,-3997.112087,-74770.920605,3552.988522
2047.793855,5625.565159,-74464.482406,-4441.235652
2047.796405,-4885.359217,-73851.606007,7254.018232
2047.798955,-18209.066173,-74311.263306,13175.665768
2047.801505,1332.370696,-72779.072310,5181.441594
2047.804055,-592.164754,-74924.139704,10362.883188
2047.806605,2072.576638,-74924.139704,7254.018232
2047.809155,5773.606348,-72472.634111,14508.036463
2047.811711,-11399.171507,-74158.044206,16136.489536
2047.814266,-5181.441594,-74464.482406,9326.594869
2047.816821,-3404.947333,-74004.825107,10807.006753
2047.819377,3849.070898,-75077.358804,-148.041188
2047.821932,-5477.523971,-73238.729609,-3701.029710
2047.824487,-12139.377449,-73238.729609,9326.594869
2047.827043,-3404.947333,-72779.072310,6513.812290
2047.829598,24426.796086,-75843.454302,-6069.688724
2047.832153,-4145.153275,-75230.577904,-592.164754
2047.834709,14952.160028,-74464.482406,-5921.647536
2047.837264,-11103.089130,-74464.482406,-4293.194464
2047.839819,5329.482782,-71706.538613,-4885.359217
2047.842375,9326.594869,-74004.825107,-444.123565
2047.844930,4737.318029,-74464.482406,-10807.006753
2047.847485,10214.842000,-74617.701505,-7846.182985
2047.850041,20429.683999,-73851.606007,-5181.441594
2047.852596,-6513.812290,-71706.538613,-444.123565
2047.855151,6069.688724,-71400.100414,-888.247130
2047.857706,12287.418637,-73698.386908,-13175.665768
2047.860262,2664.741391,-73391.948708,2960.823768
2047.862817,-9326.594869,-76303.111601,9474.636058
2047.865372,24130.713709,-72779.072310,-7846.182985
2047.867928,-888.247130,-75843.454302,2664.741391
2047.870483,-6957.935855,-75843.454302,-13767.830521
2047.873038,10658.965565,-72932.291410,-11843.295072
2047.875594,-4589.276840,-73851.606007,-3701.029710
2047.878149,17912.983796,-74158.044206,-7846.182985
2047.880704,4145.153275,-74924.139704,-2072.576638
2047.883260,4737.318029,-74770.920605,-6365.771101
2047.885815,-3849.070898,-73545.167808,3108.864956
2047.888370,2516.700203,-73698.386908,2812.782580
2047.890926,740.205942,-74004.825107,-2664.741391
2047.893481,-4589.276840,-74311.263306,8882.471304
2047.896036,-12879.583391,-75537.016103,9770.718434
2047.898592,2072.576638,-72779.072310,2960.823768
2047.901147,-10066.800811,-74004.825107,8882.471304
2047.903702,13027.624579,-74464.482406,-1924.535449
2047.906258,-1184.329507,-73238.729609,4589.276840
2047.908813,-20429.683999,-75690.235202,10066.800811
2047.911368,-4441.235652,-73085.510509,15692.365970
2047.913928,-24278.754898,-75537.016103,9474.636058
2047.916488,8142.265362,-75996.673402,-592.164754
2047.919048,-7846.182985,-76303.111601,14804.118840
2047.921608,-9918.759623,-75690.235202,-5329.482782
2047.924168,19541.436869,-71706.538613,-24426.796086
2047.926728,-7698.141797,-73545.167808,26203.290347
2047.929287,-27831.743419,-74617.701505,4885.359217
2047.931847,38342.667796,-71246.881314,4737.318029
2047.934407,-20873.807564,-75537.016103,18801.230927
2047.936967,3701.029710,-72012.976812,7402.059420
2047.939527,-11103.089130,-75383.797003,25315.043216
2047.942087,-296.082377,-73698.386908,1924.535449
2047.944647,4737.318029,-75077.358804,1036.288319
2047.947207,-11843.295072,-75537.016103,5329.482782
2047.949766,10066.800811,-72166.195912,4589.276840
2047.952326,-22206.178260,-74464.482406,7994.224174
2047.954886,6957.935855,-73545.167808,-3701.029710
2047.957446,13767.830521,-75843.454302,-6661.853478
2047.960006,2368.659014,-73698.386908,-1776.494261
2047.962566,5329.482782,-72779.072310,-4737.318029
2047.965126,-3552.988522,-73085.510509,-2220.617826
2047.967686,-9474.636058,-73698.386908,-6661.853478
2047.970245,17468.860231,-74924.139704,740.205942
2047.972805,7846.182985,-74770.920605,-6365.771101
2047.975365,-1628.453072,-75690.235202,2220.617826
2047.977925,-4441.235652,-75843.454302,-1036.288319
2047.980485,5033.400406,-72166.195912,-1776.494261
2047.983045,740.205942,-74158.044206,-4885.359217
2047.985605,17024.736666,-75077.358804,4885.359217
2047.988165,-20873.807564,-73085.510509,-2220.617826
2047.990724,18801.230927,-74924.139704,-5329.482782
2047.993284,-10362.883188,-76762.768900,-1036.288319
2047.995844,11251.130318,-74464.482406,-11991.336260
2047.998404,9918.759623,-73391.948708,-7105.977043
2048.000964,-2516.700203,-73545.167808,-10510.924376
2048.003524,6365.771101,-73238.729609,-13027.624579
2048.006084,10066.800811,-74924.139704,-3701.029710
2048.008644,-1480.411884,-73698.386908,-1480.411884
2048.011203,3404.947333,-74464.482406,5477.523971
2048.013763,1480.411884,-74311.263306,3849.070898
2048.016327,3404.947333,-74158.044206,-2072.576638
2048.018891,-4293.194464,-73851.606007,-0.000000
2048.021455,-21169.889941,-75230.577904,10807.006753
2048.024019,1924.535449,-72932.291410,6069.688724
2048.026583,-5033.400406,-74464.482406,12435.459826
2048.029147,7846.182985,-74158.044206,-2516.700203
2048.031711,1184.329507,-74158.044206,6365.771101
2048.034275,-14359.995275,-74617.701505,7698.141797
2048.036839,-12879.583391,-73545.167808,14359.995275
2048.039403,-6365.771101,-75690.235202,14211.954086
2048.041967,-4885.359217,-74464.482406,-3997.112087
2048.044531,10510.924376,-74770.920605,-15248.242405
2048.047095,-6069.688724,-74311.263306,9770.718434
2048.049658,-6957.935855,-74311.263306,296.082377
2048.052222,-2220.617826,-72012.976812,12287.418637
2048.054786,-14211.954086,-74004.825107,3701.029710
2048.057350,-4589.276840,-74464.482406,6217.729913
2048.059914,-9030.512492,-74770.920605,14063.912898
2048.062478,-8586.388927,-75230.577904,9326.594869
2048.065042,-9918.759623,-73545.167808,19245.354492
2048.067606,-592.164754,-75996.673402,8586.388927
2048.070170,-3256.906145,-73545.167808,-2516.700203
2048.072734,-6809.894666,-74311.263306,1332.370696
2048.075298,11547.212695,-72319.415011,5329.482782
2048.077862,-1628.453072,-74004.825107,3552.988522
2048.080426,10510.924376,-75537.016103,-7994.224174
2048.082990,8142.265362,-74770.920605,-4737.318029
2048.085554,3849.070898,-74924.139704,-4885.359217
2048.088118,-2220.617826,-73545.167808,-1628.453072
2048.090682,3849.070898,-73545.167808,-5329.482782
2048.093246,-11103.089130,-74617.701505,-5773.606348
2048.095809,18505.148550,-73545.167808,-7254.018232
2048.098373,5181.441594,-75230.577904,-888.247130
2048.100937,11547.212695,-73698.386908,-3701.029710
2048.103501,2368.659014,-73085.510509,1924.535449
2048.106065,6957.935855,-73085.510509,-10807.006753
2048.108629,-2812.782580,-74924.139704,9622.677246
2048.111193,20133.601622,-75077.358804,2516.700203
2048.113757,-8438.347739,-74617.701505,3849.070898
2048.116321,13175.665768,-75537.016103,-8142.265362
2048.118887,11695.253884,-74464.482406,-7846.182985
2048.121454,-2220.617826,-73391.948708,-10362.883188
2048.124020,12731.542202,-73238.729609,-13915.871710
2048.126587,-8882.471304,-74311.263306,-10658.965565
2048.129153,14063.912898,-73698.386908,-7550.100608
2048.131720,-444.123565,-74617.701505,-296.082377
2048.134286,-6069.688724,-74464.482406,2220.617826
2048.136853,7402.059420,-73238.729609,3256.906145
2048.139419,148.041188,-76456.330700,1924.535449
2048.141985,-4441.235652,-73851.606007,-1184.329507
2048.144552,-16580.613101,-74770.920605,6809.894666
2048.147118,-5625.565159,-72779.072310,9030.512492
2048.149685,-9178.553681,-73698.386908,8882.471304
2048.152251,11399.171507,-75077.358804,592.164754
2048.154818,-2220.617826,-74770.920605,11399.171507
2048.157384,-9178.553681,-74924.139704,2220.617826
2048.159951,-11991.336260,-73085.510509,9030.512492
2048.162517,-5329.482782,-74158.044206,9622.677246
2048.165083,3552.988522,-72166.195912,1776.494261
2048.167650,148.041188,-75077.358804,-10807.006753
2048.170216,4293.194464,-74158.044206,-1332.370696
2048.172783,4589.276840,-71859.757712,8734.430116
2048.175349,-19541.436869,-73238.729609,9622.677246
2048.177916,19393.395680,-72472.634111,4293.194464
2048.180482,-9030.512492,-74311.263306,17024.736666
2048.183049,-2812.782580,-72472.634111,5477.523971
2048.185615,-4145.153275,-73391.948708,16432.571912
2048.188181,-11843.295072,-75230.577904,9178.553681
2048.190748,-4441.235652,-74464.482406,5329.482782
2048.193314,3256.906145,-74311.263306,6513.812290
2048.195881,-10362.883188,-74004.825107,-1184.329507
2048.198447,-14804.118840,-71553.319513,2368.659014
2048.201014,5181.441594,-74770.920605,3404.947333
2048.203580,21762.054695,-74924.139704,-8290.306550
2048.206147,-3108.864956,-75230.577904,2072.576638
2048.208713,17024.736666,-73545.167808,-9622.677246
2048.211279,-8290.306550,-73545.167808,-4293.194464
2048.213846,-2664.741391,-74617.701505,148.041188
2048.216412,13175.665768,-73851.606007,-1036.288319
2048.218979,8882.471304,-74770.920605,-6217.729913
2048.221548,1628.453072,-74464.482406,-7994.224174
2048.224116,148.041188,-74617.701505,1480.411884
2048.226685,-3552.988522,-73545.167808,5033.400406
2048.229254,-5181.441594,-73391.948708,-740.205942
2048.231823,15988.448347,-74004.825107,888.247130
2048.234392,-2220.617826,-74770.920605,-7994.224174
2048.236960,11103.089130,-74770.920605,-1332.370696
2048.239529,-7254.018232,-76149.892501,-888.247130
2048.242098,11695.253884,-73851.606007,-8438.347739
2048.244667,-11843.295072,-74158.044206,-7402.059420
2048.247236,2812.782580,-74464.482406,-14508.036463
2048.249804,6661.853478,-72472.634111,-6365.771101
2048.252373,10362.883188,-75383.797003,-6513.812290
2048.254942,-1628.453072,-73391.948708,2664.741391
2048.257511,296.082377,-75537.016103,6365.771101
2048.260080,7402.059420,-74004.825107,-2368.659014
2048.262648,-15840.407159,-73698.386908,3256.906145
2048.265217,1184.329507,-74617.701505,-1480.411884
2048.267786,-12139.377449,-73085.510509,12583.501014
2048.270355,-2220.617826,-74158.044206,7402.059420
2048.272923,4589.276840,-73545.167808,9326.594869
2048.275492,-1776.494261,-74924.139704,5773.606348
2048.278061,-3256.906145,-74158.044206,-740.205942
2048.280630,-12287.418637,-75690.235202,12287.418637
2048.283199,-18209.066173,-74464.482406,17172.777854
2048.285767,888.247130,-72319.415011,4145.153275
2048.288336,1924.535449,-74464.482406,-2664.741391
2048.290905,444.123565,-74924.139704,-4441.235652
2048.293474,-21465.972318,-73238.729609,9622.677246
2048.296043,-296.082377,-71246.881314,-2220.617826
2048.298611,9918.759623,-72472.634111,12583.501014
2048.301180,-11991.336260,-74311.263306,9030.512492
2048.303749,4589.276840,-73698.386908,10510.924376
2048.306318,-3701.029710,-74464.482406,19541.436869
2048.308887,1332.370696,-74311.263306,6217.729913
2048.311455,-10362.883188,-74311.263306,11843.295072
2048.314024,6217.729913,-74924.139704,3108.864956
2048.316593,-10362.883188,-72932.291410,-6217.729913
2048.319162,-11991.336260,-71859.757712,10362.883188
2048.321731,10362.883188,-74158.044206,1924.535449
2048.324301,27535.661042,-75230.577904,-9474.636058
2048.326872,-10214.842000,-74311.263306,-0.000000
2048.329443,23538.548956,-74158.044206,-7402.059420
2048.332013,-17764.942608,-74617.701505,-0.000000
2048.334584,12731.542202,-73545.167808,-3552.988522
2048.337155,2220.617826,-74158.044206,-2664.741391
2048.339726,8586.388927,-74158.044206,-9030.512492
2048.342296,5921.647536,-73391.948708,-5773.606348
2048.344867,1480.411884,-75230.577904,3108.864956
2048.347438,-5477.523971,-73391.948708,-3552.988522
2048.350009,5477.523971,-73238.729609,11251.130318
2048.352579,4441.235652,-76456.330700,-5329.482782
2048.355150,10955.047942,-74004.825107,5477.523971
2048.357721,-2220.617826,-75690.235202,-5181.441594
2048.360292,20281.642811,-73545.167808,-7846.182985
2048.362862,-3997.112087,-74770.920605,-3701.029710
2048.365433,2960.823768,-73545.167808,-15988.448347
2048.368004,8882.471304,-73238.729609,-10955.047942
2048.370574,11251.130318,-75537.016103,-6365.771101
2048.373145,10066.800811,-73391.948708,-3552.988522
2048.375716,-1628.453072,-75537.016103,4145.153275
2048.378287,-1628.453072,-73851.606007,3701.029710
2048.380857,2072.576638,-74617.701505,-888.247130
2048.383428,-6809.894666,-74617.701505,4589.276840
2048.385999,-6217.729913,-74158.044206,2664.741391
2048.388570,-13915.871710,-73085.510509,13767.830521
2048.391140,-5477.523971,-74464.482406,5773.606348
2048.393711,7846.182985,-73698.386908,5181.441594
2048.396282,-10214.842000,-74617.701505,4737.318029
2048.398852,1480.411884,-73698.386908,4293.194464
2048.401423,-17024.736666,-73238.729609,13767.830521
2048.403994,-2220.617826,-73391.948708,12583.501014
2048.406565,10807.006753,-74924.139704,8734.430116
2048.409135,-3552.988522,-75383.797003,6661.853478
2048.411706,-2368.659014,-74924.139704,-10066.800811
2048.414277,-2368.659014,-70940.443115,4885.359217
2048.416848,-10955.047942,-73851.606007,9770.718434
2048.419418,2516.700203,-72779.072310,6661.853478
2048.421989,-296.082377,-75996.673402,10955.047942
2048.424560,2072.576638,-74311.263306,12139.377449
2048.427132,-9770.718434,-74158.044206,13767.830521
2048.429703,740.205942,-74617.701505,8882.471304
2048.432275,-1332.370696,-74464.482406,9770.718434
2048.434847,-5921.647536,-74617.701505,-6069.688724
2048.437419,-9622.677246,-72932.291410,9770.718434
2048.439990,6069.688724,-74311.263306,6513.812290
2048.442562,12287.418637,-75383.797003,-3256.906145
2048.445134,15396.283594,-74770.920605,-8882.471304
2048.447706,2812.782580,-74158.044206,740.205942
2048.450277,-3256.906145,-74464.482406,-5921.647536
2048.452849,3552.988522,-74311.263306,-296.082377
2048.455421,2072.576638,-74617.701505,-7698.141797
2048.457992,6217.729913,-74924.139704,-7994.224174
2048.460564,5773.606348,-73851.606007,-7254.018232
2048.463136,4441.235652,-74617.701505,-1628.453072
2048.465708,8586.388927,-74004.825107,-740.205942
2048.468279,11399.171507,-72932.291410,6069.688724
2048.470851,-4737.318029,-73085.510509,-1036.288319
2048.473423,15248.242405,-72472.634111,-13027.624579
2048.475995,11547.212695,-76456.330700,-2664.741391
2048.478566,-3256.906145,-75077.358804,-4441.235652
2048.481138,11103.089130,-74158.044206,-10214.842000
2048.483710,-740.205942,-74311.263306,-1332.370696
2048.486282,8734.430116,-74464.482406,-9326.594869
2048.488853,15692.365970,-73238.729609,-8142.265362
2048.491425,5329.482782,-74617.701505,-11991.336260
2048.493997,6069.688724,-73085.510509,-740.205942
2048.496569,-3849.070898,-74770.920605,7402.059420
2048.499140,-444.123565,-75690.235202,296.082377
2048.501712,-2960.823768,-74617.701505,9918.759623
2048.504284,-1184.329507,-75996.673402,3108.864956
2048.506856,-13471.748144,-72319.415011,7994.224174
2048.509427,888.247130,-73085.510509,2812.782580
2048.511999,592.164754,-73391.948708,9918.759623
2048.514571,-9030.512492,-74924.139704,8438.347739
2048.517143,-2516.700203,-73698.386908,6809.894666
2048.519714,-9622.677246,-73851.606007,15840.407159
2048.522286,-1036.288319,-73391.948708,8734.430116
2048.524858,148.041188,-72932.291410,444.123565
2048.527430,17320.819043,-75230.577904,-3849.070898
2048.530002,-31384.731941,-75690.235202,14804.118840
2048.532575,6957.935855,-73698.386908,-19689.478057
2048.535148,23982.672521,-69255.033019,-1480.411884
2048.537720,-45152.562462,-75996.673402,19985.560434
2048.540293,10214.842000,-72932.291410,1184.329507
2048.542866,-888.247130,-75537.016103,23390.507767
2048.545439,-4589.276840,-73851.606007,4589.276840
2048.548011,3849.070898,-74464.482406,12731.542202
2048.550584,-4589.276840,-74004.825107,-592.164754
2048.553157,-11103.089130,-72012.976812,-10066.800811
2048.555729,-5921.647536,-72319.415011,12139.377449
2048.558302,7994.224174,-73085.510509,-4885.359217
2048.560875,13915.871710,-74004.825107,-8290.306550
2048.563448,13915.871710,-75230.577904,-7254.018232
2048.566020,148.041188,-72779.072310,-7254.018232
2048.568593,-6661.853478,-74158.044206,-3108.864956
2048.571166,12139.377449,-74004.825107,-2220.617826
2048.573738,-1332.370696,-75077.358804,-8586.388927
2048.576311,5477.523971,-75383.797003,-4145.153275
2048.578884,11103.089130,-74617.701505,-4737.318029
2048.581456,-6069.688724,-74924.139704,-444.123565
2048.584029,-3849.070898,-71859.757712,-740.205942
2048.586602,9326.594869,-74617.701505,-6513.812290
2048.589175,888.247130,-72472.634111,3404.947333
2048.591747,-4589.276840,-76149.892501,1332.370696
2048.594320,29312.155303,-75077.358804,-2368.659014
2048.596893,-1184.329507,-74311.263306,-1924.535449
2048.599465,7105.977043,-72625.853210,-16432.571912
2048.602038,592.164754,-72932.291410,-5773.606348
2048.604611,10955.047942,-74311.263306,-15840.407159
2048.607184,9918.759623,-73391.948708,-7105.977043
2048.609756,1184.329507,-75077.358804,-5921.647536
2048.612330,2812.782580,-73391.948708,2516.700203
2048.614904,5329.482782,-74464.482406,4293.194464
2048.617478,-8438.347739,-76609.549800,5329.482782
2048.620052,6069.688724,-74158.044206,5773.606348
2048.622626,-19393.395680,-75383.797003,6513.812290
2048.625200,-2368.659014,-71246.881314,1924.535449
2048.627774,-4145.153275,-73238.729609,8438.347739
2048.630348,4145.153275,-75230.577904,592.164754
2048.632922,-1184.329507,-73391.948708,8438.347739
2048.635496,-10658.965565,-75537.016103,11991.336260
2048.638070,-14656.077652,-72625.853210,5921.647536
2048.640644,-21021.848753,-75230.577904,11251.130318
2048.643218,6217.729913,-75996.673402,-2664.741391
2048.645792,8586.388927,-75383.797003,7254.018232
2048.648366,-18653.189738,-74924.139704,23538.548956
2048.650940,-16728.654289,-73085.510509,2516.700203
2048.653514,-14359.995275,-72012.976812,8438.347739
2048.656088,-26351.331535,-76609.549800,10066.800811
2048.658662,15544.324782,-75230.577904,16136.489536
2048.661236,-14804.118840,-75996.673402,23390.507767
2048.663810,15544.324782,-74464.482406,2220.617826
2048.666384,-10807.006753,-75077.358804,8734.430116
2048.668958,-24722.878463,-75690.235202,148.041188
2048.671532,5773.606348,-71093.662214,9918.759623
2048.674106,-11695.253884,-75077.358804,-444.123565
2048.676680,6069.688724,-74158.044206,-2220.617826
2048.679254,30940.608376,-76915.987999,-9622.677246
2048.681828,-19245.354492,-73391.948708,4589.276840
2048.684402,12879.583391,-74770.920605,-5921.647536
2048.686976,8586.388927,-72472.634111,-4441.235652
2048.689550,-9030.512492,-74770.920605,-6809.894666
2048.692124,18653.189738,-75537.016103,-4885.359217
2048.694698,9622.677246,-74311.263306,-5181.441594
2048.697272,-296.082377,-74004.825107,-2812.782580
2048.699846,3849.070898,-73238.729609,2220.617826
2048.702420,-12139.377449,-72779.072310,9918.759623
2048.704994,1480.411884,-74464.482406,-17616.901420
2048.707568,35974.008781,-74617.701505,-592.164754
2048.710141,-24278.754898,-78141.740796,7846.182985
2048.712715,24426.796086,-74924.139704,-17616.901420
2048.715289,-16876.695478,-74617.701505,1184.329507
2048.717863,10807.006753,-72932.291410,-17764.942608
2048.720437,9474.636058,-74158.044206,-5773.606348
2048.723011,8438.347739,-73545.167808,-16284.530724
2048.725585,8290.306550,-72012.976812,-9622.677246
2048.728159,-8586.388927,-75690.235202,6513.812290
2048.730733,7254.018232,-72472.634111,-1628.453072
2048.733307,-12287.418637,-76303.111601,6957.935855
2048.735881,1480.411884,-73851.606007,3404.947333
2048.738455,-16876.695478,-75690.235202,5773.606348
2048.741029,-7105.977043,-73085.510509,2812.782580
2048.743603,-6217.729913,-72932.291410,5921.647536
2048.746177,7402.059420,-75230.577904,1628.453072
2048.748751,-3849.070898,-73391.948708,8586.388927
2048.751325,-7846.182985,-75843.454302,13027.624579
2048.753899,-11547.212695,-73238.729609,5181.441594
2048.756473,-24278.754898,-73698.386908,10066.800811
2048.759047,-5329.482782,-77528.864398,6809.894666
2048.761621,10510.924376,-75996.673402,-8882.471304
2048.764195,2368.659014,-72319.415011,12435.459826
2048.766769,-23686.590144,-73698.386908,10066.800811
2048.769343,1924.535449,-71859.757712,6217.729913
2048.771917,-21317.931130,-75690.235202,20873.807564
2048.774491,11991.336260,-75537.016103,10658.965565
2048.777065,-2368.659014,-74158.044206,19689.478057
2048.779639,5329.482782,-75996.673402,5033.400406
2048.782213,-1036.288319,-73545.167808,2072.576638
2048.784787,-23094.425390,-74158.044206,5033.400406
2048.787361,7994.224174,-71246.881314,6217.729913
2048.789935,-12287.418637,-74311.263306,-296.082377
2048.792509,27535.661042,-74770.920605,-10362.883188
2048.795083,296.082377,-75230.577904,-7698.141797
2048.797657,1036.288319,-73545.167808,-1036.288319
2048.800231,-2960.823768,-72779.072310,2220.617826
2048.802805,6957.935855,-73698.386908,-6957.935855
2048.805379,-5181.441594,-74617.701505,-4293.194464
2048.807953,28275.866984,-75383.797003,-6069.688724
2048.810527,7105.977043,-74004.825107,-6661.853478
2048.813101,4441.235652,-71246.881314,-6217.729913
2048.815675,-10807.006753,-73545.167808,7550.100608
2048.818249,-4589.276840,-74158.044206,-3552.988522
2048.820823,16728.654289,-73391.948708,-14952.160028
2048.823397,20281.642811,-75383.797003,148.041188
2048.825971,-6217.729913,-76303.111601,-4145.153275
2048.828545,1480.411884,-73851.606007,-8882.471304
2048.831119,-5625.565159,-74617.701505,-7698.141797
2048.833693,12139.377449,-73851.606007,-15544.324782
2048.836267,-3256.906145,-74158.044206,-6809.894666
2048.838842,5181.441594,-74311.263306,-9474.636058
2048.841416,740.205942,-73238.729609,888.247130
2048.843990,-888.247130,-75383.797003,5625.565159
2048.846564,2960.823768,-74311.263306,5329.482782
2048.849138,-888.247130,-75077.358804,9770.718434
2048.851712,-15100.201217,-75690.235202,2220.617826
2048.854286,-4589.276840,-73391.948708,7105.977043
2048.856860,-12731.542202,-73851.606007,4737.318029
2048.859434,11695.253884,-72779.072310,-444.123565
2048.862008,-7402.059420,-74464.482406,14063.912898
2048.864582,-2664.741391,-74004.825107,5773.606348
2048.867156,-14804.118840,-73391.948708,14952.160028
2048.869730,-10955.047942,-75077.358804,7846.182985
2048.872304,-4737.318029,-75230.577904,11251.130318
2048.874878,-12435.459826,-77069.207099,3256.906145
2048.877452,14656.077652,-73545.167808,-23686.590144
2048.880026,148.041188,-70940.443115,20133.601622
2048.882600,-20429.683999,-72319.415011,7994.224174
2048.885174,9474.636058,-70787.224015,14211.954086
2048.887748,-18505.148550,-76915.987999,11547.212695
2048.890322,11251.130318,-73545.167808,3701.029710
2048.892896,-9326.594869,-76149.892501,18209.066173
2048.895470,2812.782580,-73085.510509,-2812.782580
2048.898044,-11843.295072,-72319.415011,1184.329507
2048.900618,-17320.819043,-72319.415011,10066.800811
2048.903192,13767.830521,-73545.167808,-3701.029710
2048.905766,16284.530724,-75537.016103,-11103.089130
2048.908341,8882.471304,-74311.263306,-12287.418637
2048.910915,2516.700203,-73391.948708,-3997.112087
2048.913489,-9474.636058,-72472.634111,-1036.288319
2048.916063,20577.725188,-73698.386908,-2664.741391
2048.918637,-8290.306550,-75383.797003,-6069.688724
2048.921211,15544.324782,-75690.235202,-11251.130318
2048.923785,10066.800811,-76303.111601,-2664.741391
2048.926360,-0.000000,-74770.920605,-4145.153275
2048.928934,11991.336260,-70940.443115,-3256.906145
2048.931508,-3256.906145,-73238.729609,11695.253884
2048.934082,-7550.100608,-76915.987999,-7846.182985
2048.936657,21614.013506,-74311.263306,-1184.329507
2048.939231,9474.636058,-76609.549800,-6069.688724
2048.941805,4885.359217,-72779.072310,-11251.130318
2048.944380,-5181.441594,-72932.291410,-7698.141797
2048.946954,5921.647536,-73238.729609,-15692.365970
2048.949528,7846.182985,-74158.044206,-4589.276840
2048.952103,4589.276840,-74770.920605,-5329.482782
2048.954677,2960.823768,-73851.606007,4737.318029
2048.957251,7846.182985,-74770.920605,2664.741391
2048.959826,-10510.924376,-74770.920605,-148.041188
2048.962400,-3256.906145,-73698.386908,6217.729913
2048.964974,-15988.448347,-75843.454302,10066.800811
2048.967548,-0.000000,-72779.072310,6217.729913
2048.970123,-7846.182985,-72932.291410,2220.617826
2048.972697,8142.265362,-74158.044206,-1628.453072
2048.975271,-8142.265362,-73698.386908,8882.471304
2048.977846,-10807.006753,-73851.606007,7994.224174
2048.980420,-14804.118840,-74464.482406,11251.130318
2048.982994,-24574.837274,-75230.577904,7698.141797
2048.985569,-4145.153275,-75996.673402,-1628.453072
2048.988143,18949.272115,-75077.358804,-6513.812290
2048.990717,-5329.482782,-72472.634111,296.082377
2048.993291,-31384.731941,-73545.167808,16580.613101
2048.995866,-7254.018232,-74617.701505,15840.407159
2048.998440,-5921.647536,-74158.044206,11399.171507
2049.001014,-2368.659014,-75077.358804,7105.977043
2049.003589,2072.576638,-75383.797003,9770.718434
2049.006163,1184.329507,-75383.797003,8438.347739
2049.008737,-1628.453072,-74158.044206,3997.112087
2049.011312,-24870.919651,-73238.729609,9622.677246
2049.013886,-12583.501014,-72779.072310,3997.112087
2049.016460,33013.185013,-75843.454302,-4441.235652
2049.019034,12731.542202,-75843.454302,-11399.171507
2049.021609,3701.029710,-74158.044206,-4145.153275
2049.024183,-148.041188,-72932.291410,-5329.482782
2049.026757,-11399.171507,-71553.319513,-444.123565
2049.029330,13619.789333,-74158.044206,-1776.494261
2049.031904,3997.112087,-76149.892501,-10658.965565
2049.034478,6217.729913,-75230.577904,-6809.894666
2049.037052,4145.153275,-76915.987999,-1332.370696
2049.039626,-11399.171507,-73085.510509,-5329.482782
2049.042200,5625.565159,-72319.415011,3108.864956
2049.044774,-9770.718434,-74617.701505,-2516.700203
2049.047348,14656.077652,-74311.263306,-8142.265362
2049.049921,8882.471304,-75843.454302,5477.523971
2049.052495,296.082377,-76456.330700,-10066.800811
2049.055069,3552.988522,-73391.948708,-10955.047942
2049.057643,-296.082377,-75843.454302,-10955.047942
2049.060217,8882.471304,-73545.167808,-7550.100608
2049.062791,8734.430116,-75230.577904,592.164754
2049.065365,3404.947333,-73851.606007,-2220.617826
2049.067939,9178.553681,-74311.263306,4589.276840
2049.070513,-4737.318029,-76609.549800,5625.565159
2049.073086,-4145.153275,-74158.044206,3404.947333
2049.075660,-26351.331535,-75690.235202,11103.089130
2049.078234,296.082377,-72779.072310,11399.171507
2049.080808,-7698.141797,-74924.139704,6809.894666
2049.083382,12583.501014,-73545.167808,2960.823768
2049.085956,-6069.688724,-75077.358804,8290.306550
2049.088530,-13323.706956,-74004.825107,2220.617826
2049.091104,-15100.201217,-72779.072310,16876.695478
2049.093678,592.164754,-75996.673402,13027.624579
2049.096251,-888.247130,-74617.701505,5625.565159
2049.098825,1628.453072,-76303.111601,-5033.400406
2049.101399,5921.647536,-72012.976812,-2220.617826
2049.103973,-20577.725188,-74158.044206,10955.047942
2049.106547,-19097.313304,-72779.072310,17616.901420
2049.109121,-4737.318029,-74464.482406,16432.571912
2049.111695,-3997.112087,-75537.016103,20133.601622
2049.114269,3997.112087,-74617.701505,5773.606348
2049.116842,3256.906145,-75077.358804,6365.771101
2049.119416,-8142.265362,-74311.263306,4293.194464
2049.121990,-5773.606348,-73238.729609,8290.306550
2049.124564,-29756.278868,-73085.510509,4293.194464
2049.127138,21910.095883,-74770.920605,-5625.565159
2049.129711,26795.455100,-75996.673402,-13175.665768
2049.132285,-12731.542202,-74617.701505,-1480.411884
2049.134858,15840.407159,-72932.291410,-2664.741391
2049.137432,-12879.583391,-72779.072310,1776.494261
2049.140005,2220.617826,-73851.606007,-3997.112087
2049.142579,21169.889941,-77069.207099,-3256.906145
2049.145152,9030.512492,-75996.673402,-6365.771101
2049.147726,296.082377,-75690.235202,-2220.617826
2049.150299,1628.453072,-74617.701505,8734.430116
2049.152873,-17764.942608,-72625.853210,3849.070898
2049.155446,22206.178260,-74158.044206,-4441.235652
2049.158020,-592.164754,-77375.645298,6217.729913
2049.160593,6957.935855,-75843.454302,-17616.901420
2049.163167,13471.748144,-72779.072310,-12879.583391
2049.165741,-12435.459826,-75383.797003,-1924.535449
2049.168314,4589.276840,-72779.072310,-18357.107362
2049.170888,5477.523971,-74158.044206,-5181.441594
2049.173461,2664.741391,-73545.167808,-13027.624579
2049.176035,2072.576638,-74004.825107,5773.606348
2049.178608,10066.800811,-74617.701505,3256.906145
2049.181182,-3256.906145,-74617.701505,6957.935855
2049.183755,-3256.906145,-73698.386908,5773.606348
2049.186329,-19245.354492,-74770.920605,11103.089130
2049.188902,-4441.235652,-73391.948708,1628.453072
2049.191476,-9326.594869,-74617.701505,3997.112087
2049.194049,6957.935855,-74924.139704,5625.565159
2049.196623,444.123565,-73391.948708,9178.553681
2049.199196,-14952.160028,-72932.291410,8438.347739
2049.201770,-5181.441594,-72319.415011,8290.306550
2049.204343,-7846.182985,-75690.235202,10362.883188
2049.206917,-9770.718434,-75537.016103,2072.576638
2049.209490,-3404.947333,-75690.235202,-0.000000
2049.212064,-1036.288319,-73851.606007,4737.318029
2049.214638,-6809.894666,-71400.100414,8586.388927
2049.217211,-25463.084405,-73391.948708,14804.118840
2049.219785,-3552.988522,-73545.167808,18357.107362
2049.222358,6365.771101,-73391.948708,12139.377449
2049.224932,296.082377,-74924.139704,5921.647536
2049.227505,148.041188,-74464.482406,7402.059420
2049.230049,-11991.336260,-73391.948708,-3552.988522
2049.232593,-13027.624579,-70634.004916,8734.430116
2049.235137,5033.400406,-74464.482406,2072.576638
2049.237681,19689.478057,-75230.577904,-13175.665768
2049.240226,-1628.453072,-74617.701505,-5329.482782
2049.242770,17320.819043,-74158.044206,-7254.018232
2049.245314,-15692.365970,-72625.853210,2516.700203
2049.247858,6809.894666,-73391.948708,-2516.700203
2049.250402,7254.018232,-75690.235202,-4885.359217
2049.252946,3849.070898,-76149.892501,-10955.047942
2049.255490,19985.560434,-73698.386908,-11251.130318
2049.258034,3701.029710,-74617.701505,-888.247130
2049.260578,-22502.260637,-72472.634111,19689.478057
2049.263122,-9622.677246,-74158.044206,-4293.194464
2049.265666,33605.349767,-72166.195912,-23094.425390
2049.268210,-9918.759623,-77835.302597,7698.141797
2049.270754,29016.072926,-74004.825107,-15988.448347
2049.273299,9770.718434,-72625.853210,-148.041188
2049.275843,-148.041188,-76762.768900,-25018.960840
2049.278387,14063.912898,-71706.538613,-22058.137072
2049.280931,-11399.171507,-75077.358804,-592.164754
2049.283475,12879.583391,-72932.291410,-6069.688724
2049.286019,4145.153275,-75230.577904,11991.336260
2049.288563,6217.729913,-74617.701505,2368.659014
2049.291107,-11103.089130,-75537.016103,12435.459826
2049.293651,-19097.313304,-74770.920605,4885.359217
2049.296195,-1924.535449,-72012.976812,1036.288319
2049.298739,-5625.565159,-74004.825107,7105.977043
2049.301283,7254.018232,-74004.825107,1776.494261
2049.303827,1480.411884,-74464.482406,11399.171507
2049.306372,-4589.276840,-74311.263306,7550.100608
2049.308916,-13767.830521,-72625.853210,11251.130318
2049.311460,-10955.047942,-74617.701505,9770.718434
2049.314004,14952.160028,-75690.235202,-3849.070898
2049.316548,-6365.771101,-76762.768900,4589.276840
2049.319092,7105.977043,-70787.224015,-2960.823768
2049.321636,-11103.089130,-71553.319513,13323.706956
2049.324180,-8142.265362,-71553.319513,9326.594869
2049.326724,-8882.471304,-73851.606007,25315.043216
2049.329268,7698.141797,-75230.577904,8290.306550
2049.331817,3849.070898,-74464.482406,13323.706956
2049.334366,-6809.894666,-76762.768900,9622.677246
2049.336916,-10658.965565,-72779.072310,2516.700203
2049.339465,-26351.331535,-73238.729609,9474.636058
2049.342014,9326.594869,-74158.044206,148.041188
2049.344563,23982.672521,-76762.768900,-14508.036463
2049.347112,8142.265362,-75383.797003,-11251.130318
2049.349661,15544.324782,-73391.948708,-6217.729913
2049.352210,-13915.871710,-72625.853210,4589.276840
2049.354759,6809.894666,-72472.634111,-5033.400406
2049.357308,6957.935855,-75383.797003,-1332.370696
2049.359858,1332.370696,-75843.454302,-15100.201217
2049.362407,10510.924376,-74158.044206,-11399.171507
2049.364956,6069.688724,-72932.291410,-1776.494261
2049.367505,6365.771101,-71553.319513,-6069.688724
2049.370054,16728.654289,-71553.319513,7846.182985
2049.372603,888.247130,-75077.358804,1776.494261
2049.375152,13027.624579,-76149.892501,-13027.624579
2049.377701,25018.960840,-74617.701505,-3849.070898
2049.380250,444.123565,-73545.167808,-11695.253884
2049.382800,6957.935855,-71553.319513,-18653.189738
2049.385349,-3552.988522,-73851.606007,-8586.388927
2049.387898,8290.306550,-73698.386908,-5921.647536
2049.390447,2220.617826,-73698.386908,10658.965565
2049.392996,13619.789333,-75230.577904,1628.453072
2049.395545,-5033.400406,-73238.729609,7846.182985
2049.398094,-2368.659014,-75077.358804,2516.700203
2049.400643,-26647.413912,-73851.606007,9622.677246
2049.403192,-2220.617826,-74158.044206,9030.512492
2049.405742,-5773.606348,-75230.577904,9918.759623
2049.408291,11547.212695,-75077.358804,3404.947333
2049.410840,2516.700203,-73391.948708,10214.842000
2049.413389,-18505.148550,-72779.072310,6809.894666
2049.415938,-21169.889941,-73545.167808,13471.748144
2049.418487,-3849.070898,-76762.768900,9918.759623
2049.421036,-1184.329507,-76303.111601,5329.482782
2049.423585,14359.995275,-77222.426198,-888.247130
2049.426134,3108.864956,-71553.319513,9030.512492
2049.428684,-28571.949361,-73391.948708,13915.871710
2049.431233,-15544.324782,-74004.825107,13471.748144
2049.433786,-3256.906145,-75537.016103,13915.871710
2049.436340,3552.988522,-75383.797003,14508.036463
2049.438893,9178.553681,-74924.139704,6513.812290
2049.441446,-2960.823768,-73698.386908,2072.576638
2049.444000,-18801.230927,-73698.386908,8586.388927
2049.446553,-1924.535449,-72625.853210,7846.182985
2049.449107,25167.002028,-74617.701505,-10214.842000
2049.451660,15692.365970,-75690.235202,-16876.695478
2049.454214,9178.553681,-74004.825107,-4589.276840
2049.456767,1332.370696,-72472.634111,-3701.029710
2049.459320,296.082377,-71093.662214,-1036.288319
2049.461874,1036.288319,-75383.797003,-1776.494261
2049.464427,7402.059420,-75383.797003,-12731.542202
2049.466981,3701.029710,-74770.920605,-9474.636058
2049.469534,12583.501014,-75537.016103,-1776.494261
2049.472088,-6069.688724,-72166.195912,-3108.864956
2049.474641,6957.935855,-69714.690318,2220.617826
2049.477195,-5033.400406,-74924.139704,-7550.100608
2049.479748,1924.535449,-77069.207099,-8734.430116
2049.482301,11547.212695,-77222.426198,-4145.153275
2049.484855,9622.677246,-73851.606007,-9474.636058
2049.487408,-4885.359217,-73238.729609,-11547.212695
2049.489962,7105.977043,-73851.606007,-16580.613101
2049.492515,-10955.047942,-74464.482406,-5773.606348
2049.495069,8734.430116,-74464.482406,1184.329507
2049.497622,6957.935855,-74158.044206,5033.400406
2049.500175,10510.924376,-75230.577904,5625.565159
2049.502729,-11547.212695,-75230.577904,13767.830521
2049.505282,-20281.642811,-74464.482406,7254.018232
2049.507836,-11399.171507,-72166.195912,5329.482782
2049.510389,-3997.112087,-74311.263306,6069.688724
2049.512943,10510.924376,-75230.577904,3108.864956
2049.515496,-3404.947333,-74770.920605,11103.089130
2049.518050,-7698.141797,-72932.291410,5625.565159
2049.520603,-35085.761651,-74004.825107,12731.542202
2049.523156,-20873.807564,-73238.729609,3108.864956
2049.525710,16580.613101,-75843.454302,-7846.182985
2049.528263,-17912.983796,-76303.111601,6957.935855
2049.530817,8586.388927,-72932.291410,-1480.411884
2049.533370,-13619.789333,-71400.100414,19689.478057
2049.535927,-35233.802839,-73085.510509,10066.800811
2049.538484,3552.988522,-74311.263306,15544.324782
2049.541041,-3256.906145,-76149.892501,16580.613101
2049.543599,6217.729913,-73545.167808,-740.205942
2049.546156,-1776.494261,-74617.701505,11251.130318
2049.548713,-16284.530724,-72472.634111,2960.823768
2049.551270,-17172.777854,-72932.291410,4293.194464
2049.553827,21614.013506,-76149.892501,-6957.935855
2049.556384,14804.118840,-74770.920605,-18653.189738
2049.558941,6513.812290,-74617.701505,-3849.070898
2049.561498,8586.388927,-72012.976812,-4885.359217
2049.564056,-8290.306550,-71400.100414,-296.082377
2049.566613,5921.647536,-74924.139704,-1332.370696
2049.569170,9622.677246,-75843.454302,-13767.830521
2049.571727,12583.501014,-74004.825107,-9622.677246
2049.574284,10362.883188,-74464.482406,-9918.759623
2049.576841,4589.276840,-69714.690318,-6069.688724
2049.579398,13027.624579,-71400.100414,9622.677246
2049.581955,-10214.842000,-76303.111601,7550.100608
2049.584512,-3108.864956,-76609.549800,-16876.695478
2049.587070,7846.182985,-77528.864398,-2516.700203
2049.589627,9918.759623,-75537.016103,-15692.365970
2049.592184,2072.576638,-73085.510509,-7994.224174
2049.594741,3849.070898,-73391.948708,-12879.583391
2049.597298,6957.935855,-74004.825107,-3552.988522
2049.599855,-7105.977043,-75537.016103,10807.006753
2049.602412,19689.478057,-74924.139704,-2368.659014
2049.604969,-6809.894666,-73698.386908,10510.924376
2049.607527,3701.029710,-74158.044206,1332.370696
2049.610084,-26499.372724,-73851.606007,13619.789333
2049.612641,-3701.029710,-74464.482406,13027.624579
2049.615198,-5181.441594,-74770.920605,11103.089130
2049.617755,5329.482782,-75996.673402,5033.400406
2049.620312,-3552.988522,-73851.606007,8586.388927
2049.622869,-888.247130,-71706.538613,9030.512492
2049.625426,-17172.777854,-72472.634111,11843.295072
2049.627983,14508.036463,-72779.072310,-1924.535449
2049.630541,-444.123565,-76149.892501,8882.471304
2049.633098,-148.041188,-75537.016103,-13323.706956
2049.635655,-888.247130,-72012.976812,14359.995275
2049.638186,-16432.571912,-71246.881314,12731.542202
2049.640717,4589.276840,-71706.538613,11547.212695
2049.643248,-10214.842000,-75537.016103,16136.489536
2049.645779,6809.894666,-74617.701505,6217.729913
2049.648311,-148.041188,-74464.482406,11843.295072
2049.650842,-2812.782580,-72472.634111,-6069.688724
2049.653373,-14211.954086,-72012.976812,7698.141797
2049.655904,1480.411884,-75230.577904,8142.265362
2049.658435,27239.578666,-74924.139704,-25463.084405
2049.660966,-2960.823768,-75077.358804,-5329.482782
2049.663498,21317.931130,-73698.386908,-11103.089130
2049.666029,-8438.347739,-71706.538613,2368.659014
2049.668560,2664.741391,-73545.167808,-444.123565
2049.671091,4145.153275,-74311.263306,-4293.194464
2049.673622,1628.453072,-76303.111601,-6957.935855
2049.676153,14508.036463,-72932.291410,-12139.377449
2049.678685,19393.395680,-71706.538613,-11399.171507
2049.681216,-9622.677246,-72319.415011,13619.789333
2049.683747,12287.418637,-71859.757712,7105.977043
2049.686278,-2220.617826,-75843.454302,-3552.988522
2049.688809,23390.507767,-75996.673402,-12879.583391
2049.691340,22946.384202,-75996.673402,-7550.100608
2049.693872,-8438.347739,-73391.948708,-17616.901420
2049.696403,5033.400406,-72472.634111,-7698.141797
2049.698934,10658.965565,-75230.577904,-1776.494261
2049.701465,-9326.594869,-73851.606007,-3256.906145
2049.703996,16432.571912,-73391.948708,2664.741391
2049.706527,10658.965565,-76149.892501,3552.988522
2049.709059,-13471.748144,-74311.263306,12731.542202
2049.711590,-7846.182985,-74158.044206,18061.024985
2049.714121,-9622.677246,-73238.729609,9030.512492
2049.716652,-17172.777854,-73391.948708,4293.194464
2049.719183,20577.725188,-74924.139704,2368.659014
2049.721714,-6217.729913,-75690.235202,9178.553681
2049.724246,-7698.141797,-73545.167808,9770.718434
2049.726777,-14359.995275,-72319.415011,8142.265362
2049.729308,-26055.249158,-74158.044206,5773.606348
2049.731839,888.247130,-75843.454302,-10214.842000
2049.734370,2516.700203,-76149.892501,5033.400406
2049.736901,-11251.130318,-72932.291410,5921.647536
2049.739441,-2812.782580,-71246.881314,18357.107362
2049.741980,-15988.448347,-74004.825107,14359.995275
2049.744519,-4589.276840,-74311.263306,10214.842000
2049.747059,-2072.576638,-77069.207099,15544.324782
2049.749598,3404.947333,-75383.797003,4293.194464
2049.752137,-5329.482782,-73391.948708,9326.594869
2049.754676,-10658.965565,-72625.853210,3997.112087
2049.757216,-16728.654289,-73391.948708,2368.659014
2049.759755,21910.095883,-76149.892501,-13471.748144
2049.762294,14063.912898,-75077.358804,-13767.830521
2049.764833,10658.965565,-75537.016103,-6365.771101
2049.767373,-2960.823768,-72319.415011,296.082377
2049.769912,-1924.535449,-72932.291410,-1184.329507
2049.772451,-5181.441594,-75996.673402,1036.288319
2049.774990,20429.683999,-76609.549800,-7846.182985
2049.777530,12731.542202,-76149.892501,-6217.729913
2049.780069,-1184.329507,-75690.235202,1776.494261
2049.782608,-12287.418637,-72166.195912,148.041188
2049.785148,15544.324782,-71706.538613,-4293.194464
2049.787687,14656.077652,-76762.768900,-0.000000
2049.790226,-3108.864956,-79214.274493,-7550.100608
2049.792765,21021.848753,-74924.139704,-14359.995275
2049.795305,-1332.370696,-74158.044206,-11399.171507
2049.797844,9474.636058,-72012.976812,-16580.613101
2049.800383,1332.370696,-73238.729609,-1628.453072
2049.802922,-148.041188,-73698.386908,-8734.430116
2049.805462,9326.594869,-74004.825107,-3997.112087
2049.808001,-2664.741391,-77222.426198,3404.947333
2049.810540,-9770.718434,-74617.701505,10510.924376
2049.813079,-21762.054695,-74311.263306,17912.983796
2049.815619,2220.617826,-71859.757712,11547.212695
2049.818158,-7105.977043,-73851.606007,5329.482782
2049.820704,7254.018232,-75230.577904,-1628.453072
2049.823250,-2960.823768,-74158.044206,5773.606348
2049.825796,-8882.471304,-74004.825107,10955.047942
2049.828342,-5181.441594,-71400.100414,11547.212695
2049.830888,8290.306550,-71246.881314,3849.070898
2049.833434,1776.494261,-76149.892501,-3552.988522
2049.835980,1776.494261,-76149.892501,-9178.553681
2049.838526,-7698.141797,-72625.853210,10066.800811
2049.841072,-27091.537477,-72779.072310,15840.407159
2049.843618,4441.235652,-71706.538613,21021.848753
2049.846164,-6217.729913,-75383.797003,13175.665768
2049.848710,5625.565159,-75383.797003,3404.947333
2049.851256,-6661.853478,-74617.701505,6069.688724
2049.853802,-10066.800811,-72625.853210,3256.906145
2049.856348,-8586.388927,-72166.195912,11991.336260
2049.858894,-2960.823768,-75077.358804,-2072.576638
2049.861440,21762.054695,-74617.701505,-19393.395680
2049.863986,1480.411884,-75077.358804,-10510.924376
2049.866532,12435.459826,-73698.386908,-8734.430116
2049.869078,-1628.453072,-72319.415011,1924.535449
2049.871624,592.164754,-73085.510509,-1776.494261
2049.874170,2812.782580,-74464.482406,-3997.112087
2049.876716,11843.295072,-77222.426198,-6957.935855
2049.879262,7254.018232,-75230.577904,-7105.977043
2049.881808,-16284.530724,-72472.634111,12139.377449
2049.884354,9178.553681,-72012.976812,-15100.201217
2049.886900,25611.125593,-70021.128517,-5625.565159
2049.889446,-26351.331535,-78601.398095,8882.471304
2049.891992,44560.397708,-75077.358804,-15248.242405
2049.894538,592.164754,-76149.892501,-7550.100608
2049.897084,444.123565,-71859.757712,-27683.702231
2049.899630,2960.823768,-70787.224015,-5033.400406
2049.902176,1776.494261,-74617.701505,-592.164754
2049.904722,740.205942,-73545.167808,1924.535449
2049.907268,13027.624579,-76915.987999,5181.441594
2049.909814,-9918.759623,-75230.577904,5477.523971
2049.912360,-4293.194464,-75690.235202,3256.906145
2049.914906,-29608.237680,-73545.167808,15840.407159
2049.917452,296.082377,-72625.853210,9918.759623
2049.919998,-1924.535449,-74770.920605,10362.883188
2049.922521,5773.606348,-75843.454302,1924.535449
2049.925044,-1184.329507,-74617.701505,5329.482782
2049.927567,-25907.207970,-74464.482406,6513.812290
2049.930090,-19245.354492,-71093.662214,5625.565159
2049.932614,-2664.741391,-75843.454302,13175.665768
2049.935137,-740.205942,-78601.398095,-888.247130
2049.937660,8882.471304,-74158.044206,-1776.494261
2049.940183,-20577.725188,-73698.386908,21021.848753
2049.942706,-22946.384202,-71246.881314,10510.924376
2049.945229,-9178.553681,-73545.167808,16876.695478
2049.947752,-3997.112087,-78141.740796,12731.542202
2049.950275,7994.224174,-74004.825107,6513.812290
2049.952798,-1036.288319,-75383.797003,1924.535449
2049.955321,-18949.272115,-72472.634111,10362.883188
2049.957844,-20725.766376,-72932.291410,-1628.453072
2049.960367,36714.214723,-74464.482406,-15396.283594
2049.962890,740.205942,-74004.825107,-18505.148550
2049.965413,15840.407159,-74158.044206,-10510.924376
2049.967936,-4589.276840,-73391.948708,740.205942
2049.970459,3997.112087,-72319.415011,-5033.400406
2049.972982,592.164754,-74004.825107,3404.947333
2049.975505,14804.118840,-76915.987999,-9770.718434
2049.978028,13767.830521,-75537.016103,-12287.418637
2049.980551,13767.830521,-74311.263306,-9326.594869
2049.983074,-11991.336260,-72472.634111,10807.006753
2049.985597,6365.771101,-70480.785816,-7550.100608
2049.988120,11399.171507,-75230.577904,-5181.441594
2049.990643,-11843.295072,-78754.617194,-12139.377449
2049.993166,14211.954086,-75690.235202,-14063.912898
2049.995689,14952.160028,-74464.482406,-3404.947333
2049.998212,-12139.377449,-72932.291410,-15100.201217
2050.000735,6661.853478,-71859.757712,-2368.659014
2050.003258,-3552.988522,-75537.016103,3701.029710
2050.005781,12879.583391,-73698.386908,-5181.441594
2050.008304,-3849.070898,-77222.426198,11103.089130
2050.010827,-296.082377,-74311.263306,2516.700203
2050.013350,-27979.784608,-74158.044206,21465.972318
2050.015873,740.205942,-71706.538613,7402.059420
2050.018396,-7994.224174,-73545.167808,6217.729913
2050.020919,4293.194464,-77375.645298,3552.988522
2050.023453,-1332.370696,-74464.482406,6365.771101
2050.025986,-13619.789333,-73085.510509,10066.800811
2050.028519,4885.359217,-71400.100414,15840.407159
2050.031053,-14952.160028,-74158.044206,14508.036463
2050.033586,-7846.182985,-79061.055394,5033.400406
2050.036120,-3849.070898,-77528.864398,4145.153275
2050.038653,-10510.924376,-72779.072310,12731.542202
2050.041187,-10362.883188,-73085.510509,19541.436869
2050.043720,1184.329507,-73391.948708,18653.189738
2050.046253,-6809.894666,-75690.235202,13915.871710
2050.048787,5033.400406,-76456.330700,2960.823768
2050.051320,-6809.894666,-73545.167808,5773.606348
2050.053854,-6513.812290,-74617.701505,10807.006753
2050.056387,-14804.118840,-74158.044206,-1924.535449
2050.058920,18949.272115,-74158.044206,-12731.542202
2050.061454,17320.819043,-74158.044206,-12287.418637
2050.063987,6809.894666,-74158.044206,-6809.894666
2050.066521,2960.823768,-73085.510509,-2960.823768
2050.069054,5329.482782,-73238.729609,-3108.864956
2050.071587,-6809.894666,-75537.016103,1184.329507
2050.074121,10214.842000,-76762.768900,-4145.153275
2050.076654,11251.130318,-76915.987999,-3849.070898
2050.079188,-12583.501014,-77222.426198,11103.089130
2050.081721,13619.789333,-74004.825107,-13027.624579
2050.084255,-148.041188,-73698.386908,19541.436869
2050.086788,-12287.418637,-77375.645298,6513.812290
2050.089321,43968.232955,-74770.920605,-14211.954086
2050.091855,-1480.411884,-75077.358804,-12139.377449
2050.094388,8586.388927,-71246.881314,-20429.683999
2050.096922,8142.265362,-73391.948708,1036.288319
2050.099455,-2960.823768,-72012.976812,-9918.759623
2050.101988,-3108.864956,-73391.948708,5329.482782
2050.104522,18653.189738,-75843.454302,-2812.782580
2050.107055,-8290.306550,-75077.358804,11399.171507
2050.109589,-12879.583391,-76456.330700,11547.212695
2050.112122,-18209.066173,-71859.757712,19985.560434
2050.114655,2960.823768,-72319.415011,7994.224174
2050.117189,148.041188,-73391.948708,6069.688724
2050.119722,5773.606348,-75843.454302,-3701.029710
2050.122256,-3701.029710,-74464.482406,6661.853478
2050.124798,-18505.148550,-73238.729609,18505.148550
2050.127340,-12287.418637,-74004.825107,23390.507767
2050.129882,-8734.430116,-74004.825107,-13471.748144
2050.132425,4145.153275,-75537.016103,-2812.782580
2050.134967,1480.411884,-74770.920605,2812.782580
2050.137509,-7402.059420,-70480.785816,18209.066173
2050.140051,-6661.853478,-71246.881314,17764.942608
2050.142594,-8142.265362,-73238.729609,13767.830521
2050.145136,-4293.194464,-76303.111601,6069.688724
2050.147678,9622.677246,-74464.482406,-592.164754
2050.150220,-13619.789333,-73545.167808,9622.677246
2050.152762,-4885.359217,-73851.606007,6661.853478
2050.155305,-11547.212695,-73698.386908,-4885.359217
2050.157847,26795.455100,-75077.358804,-13471.748144
2050.160389,1776.494261,-74770.920605,-4885.359217
2050.162931,16284.530724,-74311.263306,-13323.706956
2050.165474,-3256.906145,-73085.510509,2072.576638
2050.168016,888.247130,-74617.701505,-5033.400406
2050.170558,7698.141797,-74464.482406,-3849.070898
2050.173100,16284.530724,-75843.454302,-5477.523971
2050.175642,16728.654289,-75383.797003,-1776.494261
2050.178185,-7846.182985,-73238.729609,1332.370696
2050.180727,17764.942608,-70787.224015,-4737.318029
2050.183269,5033.400406,-72779.072310,-4737.318029
2050.185811,-4145.153275,-78907.836294,-9030.512492
2050.188354,17912.983796,-75690.235202,-10807.006753
2050.190896,2072.576638,-75383.797003,-10510.924376
2050.193438,3256.906145,-70940.443115,-19097.313304
2050.195980,-6957.935855,-72779.072310,-2812.782580
2050.198522,296.082377,-73545.167808,5773.606348
2050.201065,14952.160028,-74464.482406,-4589.276840
2050.203607,-7698.141797,-75383.797003,5625.565159
2050.206149,2960.823768,-75690.235202,6069.688724
2050.208691,-27535.661042,-75230.577904,17320.819043
2050.211234,-6069.688724,-70480.785816,10214.842000
2050.213776,-10510.924376,-73391.948708,11991.336260
2050.216318,11547.212695,-74464.482406,2664.741391
2050.218860,-9474.636058,-76149.892501,7846.182985
2050.221403,-18801.230927,-75077.358804,8586.388927
2050.223945,-16580.613101,-71093.662214,3997.112087
2050.226467,-7105.977043,-74158.044206,17024.736666
2050.228987,-2368.659014,-76456.330700,5181.441594
2050.231508,6957.935855,-77222.426198,-1480.411884
2050.234029,-10658.965565,-72625.853210,13619.789333
2050.236549,-17616.901420,-72166.195912,14656.077652
2050.239070,-6809.894666,-72166.195912,11991.336260
2050.241591,-7698.141797,-77222.426198,16728.654289
2050.244111,6069.688724,-76456.330700,4737.318029
2050.246632,-5921.647536,-74004.825107,13323.706956
2050.249153,-8438.347739,-74004.825107,2220.617826
2050.251673,-4293.194464,-73391.948708,2072.576638
2050.254194,23834.631332,-74464.482406,-13767.830521
2050.256715,10066.800811,-73391.948708,-6661.853478
2050.259236,12287.418637,-73545.167808,-7994.224174
2050.261756,2368.659014,-72319.415011,-3108.864956
2050.264277,-1480.411884,-75077.358804,-1628.453072
2050.266798,-2072.576638,-75537.016103,-296.082377
2050.269318,4589.276840,-77528.864398,-5329.482782
2050.271839,888.247130,-75690.235202,-14804.118840
2050.274360,9326.594869,-73391.948708,-15544.324782
2050.276880,-4885.359217,-69408.252119,-4737.318029
2050.279401,-888.247130,-74617.701505,-2516.700203
2050.281922,-3849.070898,-78141.740796,-1628.453072
2050.284442,13915.871710,-77835.302597,-11695.253884
2050.286963,3997.112087,-74617.701505,-14211.954086
2050.289484,740.205942,-73085.510509,-18209.066173
2050.292004,3256.906145,-71093.662214,-1776.494261
2050.294525,-2368.659014,-74770.920605,8586.388927
2050.297046,12583.501014,-74770.920605,-1480.411884
2050.299566,-5033.400406,-75383.797003,6513.812290
2050.302087,592.164754,-75537.016103,2812.782580
2050.304608,-31236.690752,-75077.358804,17616.901420
2050.307128,-5329.482782,-72625.853210,18061.024985
2050.309649,-6365.771101,-73085.510509,12287.418637
2050.312170,12139.377449,-75996.673402,4441.235652
2050.314690,888.247130,-75077.358804,4589.276840
2050.317211,-5921.647536,-72932.291410,3552.988522
2050.319732,-10807.006753,-72012.976812,25611.125593
2050.322252,-18505.148550,-75077.358804,17172.777854
2050.324773,21614.013506,-75077.358804,-15396.283594
2050.327305,-25611.125593,-77069.207099,19097.313304
2050.329838,1924.535449,-73085.510509,2516.700203
2050.332370,9474.636058,-69561.471218,18949.272115
2050.334902,-28275.866984,-75537.016103,23242.466579
2050.337434,20429.683999,-72779.072310,4589.276840
2050.339967,-4589.276840,-77835.302597,14063.912898
2050.342499,-148.041188,-72779.072310,-0.000000
2050.345031,-7550.100608,-74924.139704,12435.459826
2050.347563,10066.800811,-73085.510509,-2220.617826
2050.350096,19097.313304,-74158.044206,-14804.118840
2050.352628,5033.400406,-73391.948708,-5625.565159
2050.355160,4737.318029,-72932.291410,-9326.594869
2050.357692,6365.771101,-74311.263306,-4293.194464
2050.360225,-4589.276840,-74158.044206,1184.329507
2050.362757,12435.459826,-75843.454302,-4145.153275
2050.365289,444.123565,-76762.768900,-4293.194464
2050.367821,9918.759623,-74924.139704,-19245.354492
2050.370354,-740.205942,-71706.538613,1628.453072
2050.372886,-7994.224174,-74004.825107,9326.594869
2050.375418,8438.347739,-73085.510509,-3404.947333
2050.377950,-0.000000,-78601.398095,-9918.759623
2050.380482,17320.819043,-76149.892501,-22502.260637
2050.383015,3701.029710,-74617.701505,-10658.965565
2050.385547,9474.636058,-72319.415011,-6513.812290
2050.388079,-1924.535449,-72166.195912,4737.318029
2050.390611,4885.359217,-74158.044206,3108.864956
2050.393144,10510.924376,-75383.797003,-1776.494261
2050.395676,-1628.453072,-75996.673402,4145.153275
2050.398208,-18061.024985,-76303.111601,12583.501014
2050.400740,-10658.965565,-72779.072310,19689.478057
2050.403273,-8142.265362,-72166.195912,16580.613101
2050.405805,-888.247130,-74617.701505,2516.700203
2050.408337,7402.059420,-75690.235202,-3108.864956
2050.410869,-14804.118840,-74617.701505,2664.741391
2050.413402,-9474.636058,-74311.263306,15692.365970
2050.415934,-11103.089130,-72319.415011,27683.702231
2050.418466,-1480.411884,-74770.920605,-5033.400406
2050.420998,8290.306550,-77069.207099,2368.659014
2050.423531,-18949.272115,-75996.673402,5921.647536
2050.426063,-4441.235652,-70940.443115,10066.800811
2050.428605,-14063.912898,-72166.195912,21762.054695
2050.431147,-10362.883188,-74158.044206,12879.583391
2050.433689,3997.112087,-75690.235202,14952.160028
2050.436231,-2960.823768,-75537.016103,-2516.700203
2050.438773,-8586.388927,-72472.634111,5477.523971
2050.441315,-4589.276840,-75230.577904,2664.741391
2050.443857,12583.501014,-73238.729609,-18801.230927
2050.446399,-3552.988522,-74004.825107,-12879.583391
2050.448941,17912.983796,-72472.634111,-9622.677246
2050.451483,-4589.276840,-73545.167808,-1184.329507
2050.454025,7698.141797,-73545.167808,-5773.606348
2050.456567,10955.047942,-75690.235202,-148.041188
2050.459109,-3256.906145,-77222.426198,-9474.636058
2050.461651,-1332.370696,-73545.167808,-10807.006753
2050.464193,444.123565,-74004.825107,-7402.059420
2050.466735,10955.047942,-71093.662214,-2516.700203
2050.469277,1480.411884,-71706.538613,10510.924376
2050.471819,11103.089130,-75230.577904,-14063.912898
2050.474361,8142.265362,-76456.330700,-15248.242405
2050.476903,8734.430116,-75537.016103,-12731.542202
2050.479445,11399.171507,-71553.319513,-16284.530724
2050.481987,-444.123565,-72166.195912,-1036.288319
2050.484529,-1924.535449,-72932.291410,888.247130
2050.487071,17764.942608,-74004.825107,-3701.029710
2050.489613,-14656.077652,-75843.454302,3701.029710
2050.492155,-592.164754,-75230.577904,3256.906145
2050.494697,-27831.743419,-76149.892501,26351.331535
2050.497239,3701.029710,-72012.976812,13619.789333
2050.499781,-12139.377449,-73238.729609,9178.553681
2050.502323,7994.224174,-76762.768900,-1332.370696
2050.504865,-2072.576638,-74158.044206,444.123565
2050.507407,-13027.624579,-73851.606007,5477.523971
2050.509949,4737.318029,-68335.718422,4293.194464
2050.512491,-1924.535449,-74617.701505,16728.654289
2050.515033,-2368.659014,-76149.892501,-4145.153275
2050.517575,-7994.224174,-75383.797003,3997.112087
2050.520117,-444.123565,-71553.319513,12879.583391
2050.522659,-7550.100608,-71246.881314,16432.571912
2050.525201,-8586.388927,-72779.072310,16284.530724
2050.527743,2664.741391,-75537.016103,10955.047942
2050.530293,-4885.359217,-74924.139704,740.205942
2050.532844,-4589.276840,-72472.634111,2368.659014
2050.535394,-6957.935855,-73851.606007,3404.947333
2050.537944,20281.642811,-74770.920605,-14508.036463
2050.540494,-1480.411884,-73238.729609,-13767.830521
2050.543045,8586.388927,-72932.291410,-14063.912898
2050.545595,296.082377,-72319.415011,-2072.576638
2050.548145,4145.153275,-74004.825107,-5033.400406
2050.550695,3108.864956,-75077.358804,2072.576638
2050.553245,15100.201217,-75690.235202,-7698.141797
2050.555796,24426.796086,-74311.263306,-9030.512492
2050.558346,6661.853478,-73698.386908,-6809.894666
2050.560896,-26351.331535,-76149.892501,11843.295072
2050.563446,29164.114115,-71859.757712,-10807.006753
2050.565997,-11251.130318,-76762.768900,1036.288319
2050.568547,5329.482782,-77528.864398,-21169.889941
2050.571097,18653.189738,-74924.139704,-3997.112087
2050.573647,2812.782580,-75077.358804,-19985.560434
2050.576197,-2220.617826,-70174.347617,-7846.182985
2050.578748,-1332.370696,-72779.072310,6957.935855
2050.581298,21317.931130,-73851.606007,-10214.842000
2050.583848,-23094.425390,-75996.673402,10807.006753
2050.586398,9622.677246,-74924.139704,2960.823768
2050.588949,-30940.608376,-76149.892501,22946.384202
2050.591499,296.082377,-71553.319513,10955.047942
2050.594049,-6365.771101,-72472.634111,11251.130318
2050.596599,5329.482782,-77222.426198,592.164754
2050.599149,-10807.006753,-75077.358804,4441.235652
2050.601700,-740.205942,-74770.920605,10807.006753
2050.604250,-15988.448347,-70480.785816,15692.365970
2050.606800,-13619.789333,-75077.358804,5181.441594
2050.609350,21021.848753,-75843.454302,1184.329507
2050.611901,-14359.995275,-74770.920605,2812.782580
2050.614451,-6217.729913,-71400.100414,13915.871710
2050.617001,-1776.494261,-72472.634111,19097.313304
2050.619551,-16580.613101,-75383.797003,15840.407159
2050.622101,8290.306550,-75690.235202,8290.306550
2050.624652,-5921.647536,-74924.139704,6217.729913
2050.627202,-4441.235652,-72319.415011,2812.782580
2050.629752,-3849.070898,-74004.825107,1628.453072
2050.632309,6957.935855,-74617.701505,-18357.107362
2050.634867,5921.647536,-71859.757712,-10807.006753
2050.637424,21910.095883,-74004.825107,-10066.800811
2050.639981,-3701.029710,-73085.510509,-2960.823768
2050.642539,4885.359217,-74617.701505,-2664.741391
2050.645096,10214.842000,-76149.892501,-888.247130
2050.647653,6809.894666,-74311.263306,-2220.617826
2050.650211,25463.084405,-74770.920605,-4885.359217
2050.652768,2664.741391,-73698.386908,-2220.617826
2050.655325,-13767.830521,-71246.881314,-6217.729913
2050.657882,23686.590144,-71859.757712,3997.112087
2050.660440,-8290.306550,-78754.617194,-9918.759623
2050.662997,15396.283594,-75996.673402,-19985.560434
2050.665554,14656.077652,-76303.111601,-16284.530724
2050.668112,-444.123565,-71246.881314,-12583.501014
2050.670669,2516.700203,-72012.976812,-1332.370696
2050.673226,11843.295072,-73851.606007,3997.112087
2050.675784,-1924.535449,-75843.454302,-1924.535449
2050.678341,2812.782580,-76456.330700,5329.482782
2050.680898,-21614.013506,-77069.207099,9474.636058
2050.683456,-10510.924376,-72472.634111,20281.642811
2050.686013,-4145.153275,-71553.319513,16136.489536
2050.688570,-296.082377,-74464.482406,7994.224174
2050.691127,592.164754,-76149.892501,1924.535449
2050.693685,-1924.535449,-76762.768900,296.082377
2050.696242,-21910.095883,-72932.291410,5329.482782
2050.698799,-592.164754,-71859.757712,21762.054695
2050.701357,-22354.219448,-74617.701505,3552.988522
2050.703914,11399.171507,-76456.330700,-9918.759623
2050.706471,-18653.189738,-74464.482406,14359.995275
2050.709029,-12731.542202,-72472.634111,9918.759623
2050.711586,-5921.647536,-72472.634111,18505.148550
2050.714143,-17616.901420,-76915.987999,21910.095883
2050.716701,11399.171507,-74311.263306,3108.864956
2050.719258,-11399.171507,-74770.920605,11251.130318
2050.721815,-5773.606348,-73698.386908,-8438.347739
2050.724373,9918.759623,-75077.358804,-296.082377
2050.726930,22946.384202,-74770.920605,-14063.912898
2050.729487,6957.935855,-72166.195912,-8142.265362
2050.732044,-740.205942,-73545.167808,-3849.070898
2050.734607,10214.842000,-72012.976812,-9178.553681
2050.737169,-296.082377,-75843.454302,3552.988522
2050.739731,20429.683999,-75996.673402,-4145.153275
2050.742294,7402.059420,-74464.482406,-4145.153275
2050.744856,4293.194464,-73545.167808,-16432.571912
2050.747419,592.164754,-71859.757712,-7550.100608
2050.749981,16284.530724,-70940.443115,10807.006753
2050.752543,11251.130318,-74617.701505,-15248.242405
2050.755106,4885.359217,-75230.577904,-12583.501014
2050.757668,23390.507767,-76149.892501,-16136.489536
2050.760230,-5181.441594,-72932.291410,-16432.571912
2050.762793,296.082377,-71706.538613,-5329.482782
2050.765355,10807.006753,-71553.319513,444.123565
2050.767917,1776.494261,-75077.358804,-0.000000
2050.770480,-8882.471304,-75843.454302,7105.977043
2050.773042,740.205942,-76609.549800,4885.359217
2050.775604,-27535.661042,-75077.358804,23982.672521
2050.778167,4441.235652,-72012.976812,12139.377449
2050.780729,-13323.706956,-73851.606007,15544.324782
2050.783291,3701.029710,-75383.797003,2664.741391
2050.785854,-2368.659014,-76303.111601,6957.935855
2050.788416,-22798.343014,-74158.044206,10214.842000
2050.790979,-16580.613101,-72779.072310,8438.347739
2050.793541,7994.224174,-71859.757712,12435.459826
2050.796103,-13767.830521,-78754.617194,3997.112087
2050.798666,-2960.823768,-73851.606007,5921.647536
2050.801228,-14359.995275,-75077.358804,20429.683999
2050.803790,-7254.018232,-73391.948708,15100.201217
2050.806353,-10362.883188,-74311.263306,15988.448347
2050.808915,-7698.141797,-75843.454302,5033.400406
2050.811477,-5625.565159,-73698.386908,12287.418637
2050.814040,-5181.441594,-75383.797003,5329.482782
2050.816602,11103.089130,-74924.139704,-6069.688724
2050.819164,14508.036463,-74770.920605,-17616.901420
2050.821727,-3108.864956,-71706.538613,-9178.553681
2050.824289,3701.029710,-72319.415011,-3108.864956
2050.826851,12731.542202,-72932.291410,-3108.864956
2050.829414,-740.205942,-75996.673402,-592.164754
2050.831976,9178.553681,-76609.549800,-7550.100608
2050.834539,9178.553681,-76609.549800,-296.082377
2050.837105,-7846.182985,-75537.016103,10658.965565
2050.839672,11991.336260,-71246.881314,-23834.631332
2050.842239,32272.979071,-72779.072310,-12435.459826
2050.844806,-28127.825796,-75690.235202,-1036.288319
2050.847373,19689.478057,-76456.330700,-23094.425390
2050.849939,-1184.329507,-76303.111601,-1480.411884
2050.852506,9030.512492,-75077.358804,-18801.230927
2050.855073,1924.535449,-70787.224015,-5477.523971
2050.857640,-7550.100608,-72625.853210,-1924.535449
