#time,accel_x,accel_y,accel_z
1166.701954,-689.132909,38.285162,-9016.155557
1166.704502,-344.566454,-765.703232,-9092.725880
1166.707051,38.285162,-2316.252277,-8977.870395
1166.709604,-708.275490,1263.410333,-9035.298138
1166.712157,-440.279358,-708.275490,-8920.442653
1166.714711,-842.273555,-153.140646,-9035.298138
1166.717264,746.560651,-1110.269686,-9226.723946
1166.719817,1033.699363,-535.992262,-9150.153622
1166.722370,1741.974853,-1339.980656,-9265.009107
1166.724924,133.998066,-746.560651,-8977.870395
1166.727477,-1550.549045,803.988394,-8805.587168
1166.730030,-1799.402595,-727.418070,-8977.870395
1166.732584,-1818.545176,1033.699363,-9131.011042
1166.735137,-1091.127106,-535.992262,-9245.866526
1166.737690,-842.273555,957.129040,-9111.868461
1166.740244,-363.709035,-689.132909,-9054.440718
1166.742797,-325.423874,1359.123237,-8977.870395
1166.745350,-612.562586,593.420005,-9016.155557
1166.747904,-1684.547110,918.843878,-8958.727814
1166.750457,-1761.117434,861.416136,-8997.012976
1166.753010,-1607.976787,-306.281293,-9016.155557
1166.755564,-1263.410333,1148.554848,-8939.585234
1166.758117,-689.132909,-57.427742,-8939.585234
1166.760670,-669.990328,1799.402595,-8805.587168
1166.763223,-267.996131,-497.707101,-9207.581365
1166.765777,-401.994197,-555.134843,-9092.725880
1166.768330,-2775.674216,153.140646,-9092.725880
1166.770883,-1129.412267,382.851616,-8997.012976
1166.773437,-153.140646,-287.138712,-9092.725880
1166.775990,-1512.263883,1646.261949,-8997.012976
1166.778543,-593.420005,612.562586,-9188.438784
1166.781097,-1301.695494,133.998066,-8786.444587
1166.783650,-1416.550979,2048.256146,-9035.298138
1166.786203,-1339.980656,-535.992262,-9054.440718
1166.788757,-1895.115499,1359.123237,-8977.870395
1166.791310,-1320.838075,-248.853550,-9131.011042
1166.793863,-650.847747,823.130974,-9054.440718
1166.796417,-287.138712,1071.984525,-8977.870395
1166.798970,-1397.408398,880.558717,-8901.300072
1166.801523,-918.843878,306.281293,-9035.298138
1166.804076,-1263.410333,-727.418070,-9111.868461
1166.806630,-1033.699363,478.564520,-9150.153622
1166.809183,-746.560651,1244.267752,-8939.585234
1166.811723,-1588.834206,2622.533570,-8882.157491
1166.814264,-976.271621,784.845813,-8901.300072
1166.816804,-1052.841944,-2067.398726,-9073.583299
1166.819345,-631.705166,-2124.826469,-9437.292334
1166.821885,-1761.117434,-210.568389,-9360.722011
1166.824425,95.712904,842.273555,-8958.727814
1166.826966,133.998066,363.709035,-8595.018779
1166.829506,-1129.412267,-19.142581,-9111.868461
1166.832047,-1588.834206,-1550.549045,-9226.723946
1166.834587,-765.703232,-516.849682,-9226.723946
1166.837127,363.709035,-957.129040,-9226.723946
1166.839668,133.998066,-229.710970,-9016.155557
1166.842208,957.129040,-95.712904,-9035.298138
1166.844749,-421.136778,1129.412267,-8977.870395
1166.847289,-650.847747,-1359.123237,-9131.011042
1166.849829,-976.271621,-1244.267752,-8977.870395
1166.852370,-1052.841944,-1129.412267,-9092.725880
1166.854910,-612.562586,-267.996131,-9226.723946
1166.857451,-344.566454,363.709035,-8958.727814
1166.859991,497.707101,-765.703232,-9303.294269
1166.862531,153.140646,-727.418070,-9226.723946
1166.865072,133.998066,-2565.105827,-8977.870395
1166.867612,-2909.672282,899.701298,-8920.442653
1166.870153,-57.427742,153.140646,-9054.440718
1166.872693,-76.570323,1397.408398,-8939.585234
1166.875233,306.281293,-1110.269686,-8997.012976
1166.877774,-1110.269686,-842.273555,-9073.583299
1166.880314,-861.416136,-76.570323,-9016.155557
1166.882855,0.000000,-765.703232,-9475.577496
1166.885395,478.564520,210.568389,-9016.155557
1166.887935,708.275490,-1761.117434,-9073.583299
1166.890476,-421.136778,95.712904,-8901.300072
1166.893016,-459.421939,-1091.127106,-9073.583299
1166.895557,-1339.980656,497.707101,-9035.298138
1166.898097,-937.986459,-76.570323,-9073.583299
1166.900637,-401.994197,-229.710970,-9131.011042
1166.903178,497.707101,-1780.260014,-9303.294269
1166.905718,325.423874,-555.134843,-9169.296203
1166.908259,803.988394,-1129.412267,-9303.294269
1166.910799,-248.853550,937.986459,-8939.585234
1166.913345,-708.275490,-1091.127106,-8977.870395
1166.915892,-1512.263883,153.140646,-8901.300072
1166.918438,-2890.529701,1052.841944,-9207.581365
1166.920984,-2277.967115,1493.121302,-9188.438784
1166.923531,-267.996131,-669.990328,-9207.581365
1166.926077,-421.136778,57.427742,-8939.585234
1166.928623,-382.851616,0.000000,-9054.440718
1166.931169,-1320.838075,2373.680019,-8997.012976
1166.933716,-899.701298,325.423874,-9054.440718
1166.936262,-1091.127106,-574.277424,-8977.870395
1166.938808,-1569.691626,-478.564520,-9092.725880
1166.941355,-1359.123237,153.140646,-9111.868461
1166.943901,-1588.834206,2794.816797,-8901.300072
1166.946447,-1320.838075,650.847747,-8997.012976
1166.948994,-899.701298,976.271621,-8977.870395
1166.951540,-535.992262,-918.843878,-9207.581365
1166.954086,-1052.841944,19.142581,-8882.157491
1166.956632,-689.132909,421.136778,-9035.298138
1166.959179,-1205.982590,823.130974,-9092.725880
1166.961725,-2048.256146,-574.277424,-9111.868461
1166.964271,-1761.117434,1856.830338,-8863.014910
1166.966818,-382.851616,-995.414202,-9169.296203
1166.969364,-440.279358,2545.963246,-9016.155557
1166.971910,746.560651,1052.841944,-8977.870395
1166.974457,-1971.685822,-95.712904,-8882.157491
1166.977003,-1569.691626,2545.963246,-8729.016845
1166.979549,-1761.117434,-1780.260014,-9054.440718
1166.982095,-1818.545176,2488.535504,-8939.585234
1166.984642,-976.271621,-842.273555,-9054.440718
1166.987188,-1110.269686,2258.824534,-8805.587168
1166.989734,-535.992262,669.990328,-9054.440718
1166.992281,-1512.263883,918.843878,-8958.727814
1166.994827,-976.271621,-325.423874,-9016.155557
1166.997373,-803.988394,-478.564520,-9188.438784
1166.999920,-1244.267752,1014.556782,-9054.440718
1167.002466,-727.418070,1129.412267,-8843.872330
1167.005012,-1837.687757,2258.824534,-8805.587168
1167.007559,-1225.125171,516.849682,-9035.298138
1167.010105,-1033.699363,-1914.258080,-9150.153622
1167.012651,-631.705166,-1512.263883,-9399.007173
1167.015203,-1780.260014,325.423874,-9303.294269
1167.017755,38.285162,1129.412267,-8997.012976
1167.020307,612.562586,-459.421939,-8748.159426
1167.022859,-287.138712,-516.849682,-9131.011042
1167.025410,-1339.980656,-1856.830338,-9150.153622
1167.027962,-918.843878,-363.709035,-9131.011042
1167.030514,-191.425808,-631.705166,-9016.155557
1167.033065,-440.279358,133.998066,-8977.870395
1167.035617,1129.412267,-689.132909,-9150.153622
1167.038169,-325.423874,669.990328,-9169.296203
1167.040720,-133.998066,-1148.554848,-9226.723946
1167.043272,-727.418070,-861.416136,-9035.298138
1167.045824,-1014.556782,-1186.840010,-9111.868461
1167.048375,-880.558717,-95.712904,-9131.011042
1167.050927,-172.283227,-1110.269686,-9150.153622
1167.053479,114.855485,-516.849682,-9073.583299
1167.056031,-363.709035,57.427742,-9092.725880
1167.058582,1320.838075,-1225.125171,-8939.585234
1167.061134,-1569.691626,363.709035,-8767.302006
1167.063686,-1091.127106,899.701298,-9035.298138
1167.066237,153.140646,-1569.691626,-9284.151688
1167.068789,-344.566454,-535.992262,-8901.300072
1167.071341,-440.279358,-861.416136,-9035.298138
1167.073892,153.140646,-1205.982590,-9131.011042
1167.076444,210.568389,669.990328,-9303.294269
1167.078996,957.129040,-803.988394,-9322.436850
1167.081547,-344.566454,-363.709035,-8901.300072
1167.084099,-478.564520,-842.273555,-9073.583299
1167.086651,-1550.549045,248.853550,-9131.011042
1167.089203,-401.994197,440.279358,-9111.868461
1167.091754,0.000000,-2143.969050,-9226.723946
1167.094306,-210.568389,-191.425808,-9131.011042
1167.096858,1033.699363,-1493.121302,-9169.296203
1167.099409,440.279358,689.132909,-9035.298138
1167.101961,-344.566454,-114.855485,-9054.440718
1167.104513,-918.843878,-287.138712,-8977.870395
1167.107064,-1071.984525,-210.568389,-8843.872330
1167.109616,-1627.119368,1569.691626,-8958.727814
1167.112168,-1684.547110,-382.851616,-9188.438784
1167.114719,-1014.556782,593.420005,-9207.581365
1167.117276,-976.271621,-363.709035,-9150.153622
1167.119832,-19.142581,2239.681954,-8920.442653
1167.122388,-880.558717,708.275490,-8958.727814
1167.124944,-1320.838075,593.420005,-9054.440718
1167.127500,-1071.984525,-727.418070,-9016.155557
1167.130056,-1397.408398,306.281293,-8939.585234
1167.132612,-957.129040,1091.127106,-9054.440718
1167.135168,-1397.408398,2603.390989,-8863.014910
1167.137724,-1129.412267,306.281293,-8977.870395
1167.140280,-1646.261949,95.712904,-9035.298138
1167.142836,-899.701298,-1071.984525,-9188.438784
1167.145393,-746.560651,191.425808,-8882.157491
1167.147949,-1110.269686,478.564520,-9092.725880
1167.150505,-918.843878,-1837.687757,-9131.011042
1167.153061,-2526.820666,2354.537438,-8786.444587
1167.155617,-287.138712,-1378.265818,-9111.868461
1167.158173,-995.414202,995.414202,-8958.727814
1167.160729,746.560651,2105.683888,-9284.151688
1167.163285,-1914.258080,-1110.269686,-8958.727814
1167.165841,-1167.697429,3081.955509,-8805.587168
1167.168397,-1359.123237,-2297.109696,-9226.723946
1167.170953,-2354.537438,1990.828403,-9016.155557
1167.173509,-497.707101,535.992262,-9360.722011
1167.176066,-1933.400661,1856.830338,-8824.729749
1167.178622,-478.564520,727.418070,-8863.014910
1167.181178,-1186.840010,287.138712,-8939.585234
1167.183734,-937.986459,-535.992262,-9169.296203
1167.186290,-76.570323,-574.277424,-9303.294269
1167.188846,-1339.980656,1665.404530,-8958.727814
1167.191402,-1148.554848,1703.689691,-8843.872330
1167.193958,-2067.398726,1531.406464,-8863.014910
1167.196514,-1722.832272,-1799.402595,-9016.155557
1167.199070,-1263.410333,-2143.969050,-9265.009107
1167.201626,842.273555,2182.254211,-9150.153622
1167.204183,1167.697429,-1665.404530,-9073.583299
1167.206739,516.849682,459.421939,-8729.016845
1167.209295,-95.712904,-1052.841944,-9207.581365
1167.211851,-1301.695494,-1550.549045,-9169.296203
1167.214407,-459.421939,-593.420005,-9092.725880
1167.216963,-267.996131,-516.849682,-9054.440718
1167.219523,-1052.841944,478.564520,-9073.583299
1167.222083,248.853550,-1493.121302,-9188.438784
1167.224643,-76.570323,880.558717,-9035.298138
1167.227203,497.707101,-1339.980656,-9284.151688
1167.229763,-516.849682,-325.423874,-8997.012976
1167.232323,-593.420005,-1741.974853,-9054.440718
1167.234883,-880.558717,-267.996131,-9150.153622
1167.237443,-401.994197,-1014.556782,-8977.870395
1167.240003,-631.705166,-765.703232,-9379.864592
1167.242563,-133.998066,-1512.263883,-9303.294269
1167.245123,-1205.982590,-689.132909,-8920.442653
1167.247683,-459.421939,-2048.256146,-9169.296203
1167.250243,-1205.982590,803.988394,-8748.159426
1167.252803,-325.423874,1416.550979,-9226.723946
1167.255363,19.142581,-1301.695494,-9111.868461
1167.257923,19.142581,1493.121302,-8824.729749
1167.260483,593.420005,-2469.392923,-9265.009107
1167.263043,-172.283227,899.701298,-8863.014910
1167.265603,689.132909,-1856.830338,-9245.866526
1167.268163,-1512.263883,976.271621,-8920.442653
1167.270723,-478.564520,-210.568389,-9092.725880
1167.273283,-1167.697429,-478.564520,-9073.583299
1167.275843,-382.851616,-995.414202,-9265.009107
1167.278403,57.427742,-1205.982590,-9245.866526
1167.280963,478.564520,-229.710970,-9016.155557
1167.283523,976.271621,19.142581,-9054.440718
1167.286083,-746.560651,-593.420005,-8977.870395
1167.288642,-631.705166,-995.414202,-8977.870395
1167.291202,-1186.840010,95.712904,-8997.012976
1167.293762,-1091.127106,1837.687757,-8958.727814
1167.296322,-2258.824534,172.283227,-8977.870395
1167.298882,-1665.404530,555.134843,-9150.153622
1167.301442,-708.275490,-535.992262,-9131.011042
1167.304002,-363.709035,2239.681954,-9035.298138
1167.306562,-459.421939,1014.556782,-8882.157491
1167.309122,-1014.556782,650.847747,-8939.585234
1167.311682,-1512.263883,-746.560651,-8958.727814
1167.314242,-1186.840010,-57.427742,-9016.155557
1167.316802,-1225.125171,478.564520,-9035.298138
1167.319362,-1320.838075,2488.535504,-8939.585234
1167.321909,-1454.836141,1033.699363,-9092.725880
1167.324455,-1607.976787,401.994197,-8977.870395
1167.327001,-880.558717,-114.855485,-8920.442653
1167.329548,-1091.127106,-57.427742,-9016.155557
1167.332094,-861.416136,-114.855485,-9035.298138
1167.334640,-1378.265818,3388.236802,-8824.729749
1167.337187,-803.988394,-229.710970,-9073.583299
1167.339733,-516.849682,-1359.123237,-9035.298138
1167.342280,-899.701298,-1148.554848,-9188.438784
1167.344826,-765.703232,1990.828403,-9092.725880
1167.347372,-1799.402595,631.705166,-9169.296203
1167.349919,-1837.687757,535.992262,-8997.012976
1167.352465,-1512.263883,-535.992262,-8997.012976
1167.355011,-1895.115499,574.277424,-9073.583299
1167.357558,-1665.404530,1416.550979,-9131.011042
1167.360104,-1263.410333,995.414202,-8958.727814
1167.362651,-535.992262,-38.285162,-9035.298138
1167.365197,-344.566454,-823.130974,-9054.440718
1167.367743,-765.703232,248.853550,-9035.298138
1167.370290,-612.562586,976.271621,-9092.725880
1167.372836,-1627.119368,2239.681954,-8977.870395
1167.375382,-1569.691626,1588.834206,-8863.014910
1167.377929,-2086.541307,-1895.115499,-8958.727814
1167.380475,-1569.691626,-1684.547110,-9303.294269
1167.383021,-1110.269686,-382.851616,-9399.007173
1167.385568,1359.123237,1033.699363,-8977.870395
1167.388114,1244.267752,-1110.269686,-8843.872330
1167.390661,-76.570323,421.136778,-9073.583299
1167.393207,-1052.841944,-2392.822600,-9188.438784
1167.395753,-1359.123237,-593.420005,-9111.868461
1167.398300,-76.570323,-440.279358,-9169.296203
1167.400846,-669.990328,95.712904,-8977.870395
1167.403392,382.851616,-555.134843,-9092.725880
1167.405939,-38.285162,-459.421939,-9226.723946
1167.408485,153.140646,-535.992262,-9169.296203
1167.411032,-19.142581,-995.414202,-9111.868461
1167.413578,-880.558717,-746.560651,-9035.298138
1167.416124,-555.134843,-1033.699363,-9054.440718
1167.418671,-1148.554848,-267.996131,-9073.583299
1167.421217,555.134843,765.703232,-9131.011042
1167.423769,306.281293,-1856.830338,-9245.866526
1167.426320,-689.132909,-267.996131,-8920.442653
1167.428872,-1091.127106,-3005.385186,-9131.011042
1167.431423,-1990.828403,153.140646,-9054.440718
1167.433975,382.851616,19.142581,-9111.868461
1167.436527,133.998066,-995.414202,-9265.009107
1167.439078,631.705166,497.707101,-9073.583299
1167.441630,803.988394,-1933.400661,-9207.581365
1167.444182,-248.853550,803.988394,-8997.012976
1167.446733,-325.423874,-784.845813,-9150.153622
1167.449285,-1359.123237,478.564520,-8958.727814
1167.451837,-574.277424,-1588.834206,-9169.296203
1167.454388,-440.279358,-1186.840010,-9169.296203
1167.456940,325.423874,-708.275490,-9150.153622
1167.459491,478.564520,-861.416136,-9150.153622
1167.462043,-114.855485,1091.127106,-9016.155557
1167.464595,38.285162,-2067.398726,-9016.155557
1167.467146,-593.420005,-421.136778,-9073.583299
1167.469698,-1818.545176,-57.427742,-9111.868461
1167.472250,-937.986459,3235.096155,-8882.157491
1167.474801,-784.845813,-1033.699363,-8977.870395
1167.477353,-1473.978722,191.425808,-9073.583299
1167.479904,-1014.556782,-497.707101,-9341.579430
1167.482456,-669.990328,1875.972918,-8977.870395
1167.485008,-669.990328,784.845813,-8920.442653
1167.487559,-689.132909,535.992262,-8958.727814
1167.490111,-1320.838075,-1052.841944,-9054.440718
1167.492663,-1435.693560,95.712904,-9054.440718
1167.495214,-1435.693560,1397.408398,-8977.870395
1167.497766,-1186.840010,1684.547110,-8977.870395
1167.500317,-1493.121302,899.701298,-8939.585234
1167.502869,-1148.554848,-95.712904,-9073.583299
1167.505425,-1301.695494,-631.705166,-9111.868461
1167.507982,-421.136778,937.986459,-8843.872330
1167.510538,114.855485,-669.990328,-9092.725880
1167.513094,-2297.109696,1531.406464,-9016.155557
1167.515651,-1761.117434,3139.383251,-8882.157491
1167.518207,306.281293,-631.705166,-9092.725880
1167.520763,-803.988394,-497.707101,-9303.294269
1167.523320,-478.564520,2086.541307,-8920.442653
1167.525876,-2488.535504,516.849682,-8748.159426
1167.528432,-2277.967115,2411.965181,-8901.300072
1167.530988,-1320.838075,-497.707101,-9188.438784
1167.533545,-1684.547110,1569.691626,-8843.872330
1167.536101,-765.703232,440.279358,-9188.438784
1167.538657,-1244.267752,574.277424,-9073.583299
1167.541214,191.425808,210.568389,-9054.440718
1167.543770,-191.425808,363.709035,-9054.440718
1167.546326,-1493.121302,2201.396792,-8882.157491
1167.548883,-1339.980656,593.420005,-9054.440718
1167.551439,-2048.256146,689.132909,-8882.157491
1167.553995,-1244.267752,-2258.824534,-9207.581365
1167.556551,-133.998066,2182.254211,-8920.442653
1167.559108,-133.998066,-1971.685822,-9169.296203
1167.561664,-153.140646,899.701298,-9092.725880
1167.564220,842.273555,-1856.830338,-9245.866526
1167.566777,267.996131,0.000000,-8997.012976
1167.569333,-612.562586,-1148.554848,-9035.298138
1167.571889,-1071.984525,248.853550,-8958.727814
1167.574446,-1167.697429,-191.425808,-9054.440718
1167.577002,-172.283227,-957.129040,-9265.009107
1167.579558,382.851616,-19.142581,-9131.011042
1167.582114,669.990328,-95.712904,-9111.868461
1167.584671,-133.998066,-516.849682,-9035.298138
1167.587227,-363.709035,-1378.265818,-9092.725880
1167.589783,-727.418070,-440.279358,-9092.725880
1167.592340,-440.279358,-1282.552914,-9226.723946
1167.594896,-401.994197,-1339.980656,-9111.868461
1167.597452,-1780.260014,1780.260014,-9016.155557
1167.600009,1033.699363,-497.707101,-9092.725880
1167.602565,-574.277424,957.129040,-9035.298138
1167.605121,344.566454,-1454.836141,-8824.729749
1167.607681,-1282.552914,-631.705166,-9265.009107
1167.610241,306.281293,-899.701298,-9284.151688
1167.612801,133.998066,-1550.549045,-9303.294269
1167.615361,76.570323,38.285162,-8824.729749
1167.617921,248.853550,-1895.115499,-9150.153622
1167.620481,-1167.697429,689.132909,-9016.155557
1167.623041,-363.709035,-861.416136,-9245.866526
1167.625601,-708.275490,-746.560651,-9150.153622
1167.628161,-95.712904,-1014.556782,-9265.009107
1167.630721,153.140646,-995.414202,-9131.011042
1167.633281,133.998066,248.853550,-9016.155557
1167.635841,-612.562586,-153.140646,-8977.870395
1167.638401,-191.425808,-631.705166,-9035.298138
1167.640961,-325.423874,-1148.554848,-9054.440718
1167.643521,-1990.828403,2794.816797,-9131.011042
1167.646081,-2048.256146,248.853550,-9131.011042
1167.648641,-1225.125171,689.132909,-8977.870395
1167.651201,-1052.841944,-229.710970,-9188.438784
1167.653761,-516.849682,1359.123237,-8997.012976
1167.656321,-1148.554848,1110.269686,-8997.012976
1167.658881,-1148.554848,842.273555,-9035.298138
1167.661441,-650.847747,-19.142581,-9035.298138
1167.664001,-516.849682,-1129.412267,-8977.870395
1167.666561,-1550.549045,861.416136,-8997.012976
1167.669121,-1244.267752,2182.254211,-8920.442653
1167.671681,-1378.265818,1454.836141,-8901.300072
1167.674241,-1684.547110,746.560651,-8977.870395
1167.676801,-1301.695494,-650.847747,-9284.151688
1167.679361,-765.703232,-516.849682,-8901.300072
1167.681921,-1186.840010,-440.279358,-8997.012976
1167.684481,-1091.127106,4230.510357,-9092.725880
1167.687041,-1588.834206,-3196.810994,-8920.442653
1167.689601,-2009.970984,2986.242605,-8977.870395
1167.692161,-421.136778,267.996131,-9303.294269
1167.694721,-1052.841944,-114.855485,-8805.587168
1167.697281,-880.558717,3139.383251,-8786.444587
1167.699841,-2775.674216,133.998066,-8843.872330
1167.702401,-2373.680019,2220.539373,-8939.585234
1167.704961,-1205.982590,-1091.127106,-9245.866526
1167.707521,-957.129040,937.986459,-9035.298138
1167.710085,229.710970,-287.138712,-9092.725880
1167.712648,-746.560651,1512.263883,-8939.585234
1167.715212,-382.851616,708.275490,-8997.012976
1167.717775,-1665.404530,2048.256146,-8939.585234
1167.720338,-2067.398726,38.285162,-8958.727814
1167.722902,-1320.838075,-1397.408398,-9131.011042
1167.725465,-1550.549045,0.000000,-9360.722011
1167.728029,-421.136778,1033.699363,-9131.011042
1167.730592,803.988394,1359.123237,-8843.872330
1167.733155,1244.267752,-2469.392923,-8997.012976
1167.735719,421.136778,172.283227,-9207.581365
1167.738282,-516.849682,-1875.972918,-9131.011042
1167.740846,-1320.838075,-19.142581,-8977.870395
1167.743409,-555.134843,-287.138712,-8997.012976
1167.745972,-918.843878,-153.140646,-9131.011042
1167.748536,325.423874,-1263.410333,-9265.009107
1167.751099,363.709035,0.000000,-9188.438784
1167.753662,248.853550,363.709035,-9111.868461
1167.756226,57.427742,-1033.699363,-9111.868461
1167.758789,-976.271621,-1205.982590,-9226.723946
1167.761353,-133.998066,-957.129040,-8920.442653
1167.763916,-1052.841944,-133.998066,-9207.581365
1167.766479,746.560651,1167.697429,-8882.157491
1167.769043,440.279358,-4785.645200,-9475.577496
1167.771606,-2124.826469,2507.678085,-8748.159426
1167.774170,1129.412267,-459.421939,-9226.723946
1167.776733,-1416.550979,-1339.980656,-8901.300072
1167.779296,1282.552914,1454.836141,-9150.153622
1167.781860,-497.707101,-1339.980656,-9188.438784
1167.784423,823.130974,1512.263883,-8958.727814
1167.786987,612.562586,-2756.531635,-9054.440718
1167.789550,-1301.695494,823.130974,-8920.442653
1167.792113,363.709035,-2297.109696,-9284.151688
1167.794677,-880.558717,574.277424,-9169.296203
1167.797240,306.281293,-899.701298,-9265.009107
1167.799804,-95.712904,-95.712904,-9111.868461
1167.802367,-401.994197,-114.855485,-8977.870395
1167.804930,-459.421939,-803.988394,-9111.868461
1167.807494,-631.705166,-325.423874,-9092.725880
1167.810057,-267.996131,248.853550,-8958.727814
1167.812624,-1167.697429,2545.963246,-8997.012976
1167.815190,-803.988394,-803.988394,-9035.298138
1167.817757,-1971.685822,191.425808,-9054.440718
1167.820323,-1512.263883,-191.425808,-9284.151688
1167.822890,-918.843878,1665.404530,-8977.870395
1167.825456,-918.843878,1454.836141,-8882.157491
1167.828023,-784.845813,76.570323,-9054.440718
1167.830589,-1359.123237,-918.843878,-9073.583299
1167.833156,-593.420005,172.283227,-9016.155557
1167.835722,-1148.554848,1091.127106,-8901.300072
1167.838289,-1244.267752,2584.248408,-8901.300072
1167.840855,-1588.834206,784.845813,-8920.442653
1167.843422,-1799.402595,535.992262,-9207.581365
1167.845988,-1033.699363,-995.414202,-9207.581365
1167.848555,-957.129040,612.562586,-8863.014910
1167.851121,153.140646,4019.941968,-9226.723946
1167.853688,-765.703232,-5359.922624,-8595.018779
1167.856254,-1856.830338,7963.313613,-8786.444587
1167.858821,-95.712904,-4804.787781,-9322.436850
1167.861387,-1359.123237,3483.949706,-9245.866526
1167.863954,-746.560651,1416.550979,-8882.157491
1167.866520,-3292.523898,708.275490,-8652.446522
1167.869087,-1971.685822,2507.678085,-9035.298138
1167.871653,-1512.263883,-1454.836141,-9245.866526
1167.874220,-325.423874,1684.547110,-9035.298138
1167.876786,382.851616,-1837.687757,-9265.009107
1167.879353,-1761.117434,2277.967115,-8882.157491
1167.881919,440.279358,1110.269686,-8882.157491
1167.884486,-1799.402595,1397.408398,-8824.729749
1167.887052,-1741.974853,0.000000,-8977.870395
1167.889619,-823.130974,-2660.818731,-9265.009107
1167.892185,-1263.410333,2986.242605,-9303.294269
1167.894752,-689.132909,-2220.539373,-9379.864592
1167.897318,-153.140646,2258.824534,-8824.729749
1167.899884,1550.549045,-3043.670347,-8958.727814
1167.902451,631.705166,823.130974,-9054.440718
1167.905017,-248.853550,-1627.119368,-9207.581365
1167.907584,-1301.695494,325.423874,-8958.727814
1167.910150,-880.558717,-382.851616,-8997.012976
1167.912717,-593.420005,-1033.699363,-9169.296203
1167.915288,95.712904,-784.845813,-9265.009107
1167.917857,842.273555,-689.132909,-9207.581365
1167.920426,19.142581,708.275490,-8997.012976
1167.922995,38.285162,-1129.412267,-9035.298138
1167.925564,-650.847747,133.998066,-8863.014910
1167.928133,-784.845813,-937.986459,-9111.868461
1167.930702,459.421939,401.994197,-9207.581365
1167.933271,-976.271621,-1799.402595,-9035.298138
1167.935839,-516.849682,3349.951640,-9073.583299
1167.938408,363.709035,-6431.907149,-9188.438784
1167.940977,-1665.404530,-784.845813,-8920.442653
1167.943546,1665.404530,631.705166,-9303.294269
1167.946115,-765.703232,-918.843878,-9169.296203
1167.948684,1225.125171,669.990328,-9054.440718
1167.951253,-363.709035,-1971.685822,-8901.300072
1167.953822,-593.420005,880.558717,-8863.014910
1167.956391,-191.425808,-2641.676150,-9303.294269
1167.958959,-114.855485,803.988394,-9092.725880
1167.961528,631.705166,-1071.984525,-9169.296203
1167.964097,-325.423874,593.420005,-9092.725880
1167.966666,-593.420005,-421.136778,-8958.727814
1167.969235,-267.996131,-1129.412267,-9188.438784
1167.971804,-382.851616,-1225.125171,-8977.870395
1167.974373,-650.847747,631.705166,-9054.440718
1167.976942,-1110.269686,2756.531635,-8843.872330
1167.979511,-478.564520,210.568389,-8939.585234
1167.982079,-1607.976787,-95.712904,-9131.011042
1167.984648,-1454.836141,-57.427742,-9284.151688
1167.987217,-1493.121302,1531.406464,-8958.727814
1167.989786,-1416.550979,1493.121302,-8882.157491
1167.992355,-229.710970,344.566454,-9054.440718
1167.994924,-1186.840010,-631.705166,-9054.440718
1167.997493,-727.418070,57.427742,-9035.298138
1168.000062,-1301.695494,765.703232,-8977.870395
1168.002631,-1397.408398,2641.676150,-8824.729749
1168.005199,-1531.406464,823.130974,-9092.725880
1168.007768,-2067.398726,727.418070,-8882.157491
1168.010337,-880.558717,1378.265818,-9188.438784
1168.012906,1148.554848,-1205.982590,-9169.296203
1168.015475,-957.129040,2526.820666,-8843.872330
1168.018046,-172.283227,3196.810994,-8843.872330
1168.020617,-727.418070,-2699.103893,-8824.729749
1168.023188,-1741.974853,2737.389054,-9169.296203
1168.025759,-1627.119368,-1837.687757,-9322.436850
1168.028330,-2048.256146,2660.818731,-8652.446522
1168.030901,-1263.410333,382.851616,-9111.868461
1168.033472,-2354.537438,1435.693560,-8997.012976
1168.036043,-440.279358,-842.273555,-9207.581365
1168.038614,-325.423874,-535.992262,-9245.866526
1168.041185,-382.851616,918.843878,-8977.870395
1168.043756,-727.418070,2163.111630,-8882.157491
1168.046327,-2565.105827,1550.549045,-8805.587168
1168.048898,-1588.834206,-133.998066,-8901.300072
1168.051469,-1435.693560,-2029.113565,-9131.011042
1168.054040,-765.703232,1933.400661,-9303.294269
1168.056611,-803.988394,-1282.552914,-9418.149754
1168.059182,-459.421939,995.414202,-8824.729749
1168.061753,842.273555,-2143.969050,-9016.155557
1168.064324,325.423874,133.998066,-9035.298138
1168.066895,-210.568389,-1378.265818,-9150.153622
1168.069466,-1263.410333,95.712904,-8977.870395
1168.072037,-918.843878,-555.134843,-9073.583299
1168.074608,-478.564520,-516.849682,-8997.012976
1168.077179,153.140646,-1071.984525,-9265.009107
1168.079750,765.703232,-287.138712,-9226.723946
1168.082321,593.420005,229.710970,-9054.440718
1168.084892,-133.998066,-593.420005,-8824.729749
1168.087463,-1129.412267,-765.703232,-9073.583299
1168.090034,-478.564520,-2756.531635,-9016.155557
1168.092605,-2143.969050,-191.425808,-9150.153622
1168.095176,267.996131,306.281293,-9226.723946
1168.097747,-689.132909,1091.127106,-8824.729749
1168.100318,-344.566454,-669.990328,-9265.009107
1168.102889,248.853550,-1129.412267,-9016.155557
1168.105460,287.138712,-535.992262,-9360.722011
1168.108032,133.998066,-899.701298,-9494.720077
1168.110603,-382.851616,248.853550,-8977.870395
1168.113174,287.138712,-1359.123237,-8977.870395
1168.115745,-478.564520,-1646.261949,-9169.296203
1168.118316,191.425808,-746.560651,-9169.296203
1168.120888,-133.998066,-459.421939,-9150.153622
1168.123461,172.283227,287.138712,-9111.868461
1168.126033,-612.562586,325.423874,-9035.298138
1168.128605,-689.132909,-1301.695494,-8997.012976
1168.131178,-191.425808,-1512.263883,-9207.581365
1168.133750,-421.136778,-57.427742,-9035.298138
1168.136323,-631.705166,2086.541307,-8767.302006
1168.138895,-574.277424,153.140646,-8824.729749
1168.141468,-2009.970984,210.568389,-9016.155557
1168.144040,-1761.117434,-325.423874,-9245.866526
1168.146613,-1186.840010,1339.980656,-8977.870395
1168.149185,-861.416136,1990.828403,-8939.585234
1168.151758,-899.701298,153.140646,-9054.440718
1168.154330,-1052.841944,-689.132909,-9073.583299
1168.156902,-535.992262,401.994197,-9054.440718
1168.159475,-1167.697429,957.129040,-8997.012976
1168.162047,-1052.841944,1665.404530,-8977.870395
1168.164620,-1569.691626,344.566454,-9016.155557
1168.167192,-2335.394858,57.427742,-9150.153622
1168.169765,-1627.119368,-2009.970984,-9188.438784
1168.172337,-746.560651,2029.113565,-9073.583299
1168.174910,248.853550,3560.520029,-8997.012976
1168.177482,-344.566454,-803.988394,-8767.302006
1168.180055,-1627.119368,1091.127106,-8863.014910
1168.182627,-1244.267752,-689.132909,-9245.866526
1168.185200,-2699.103893,1167.697429,-8997.012976
1168.187772,-1359.123237,727.418070,-9131.011042
1168.190344,-2316.252277,708.275490,-8805.587168
1168.192917,-1110.269686,1320.838075,-9016.155557
1168.195489,-363.709035,-1569.691626,-9284.151688
1168.198062,-631.705166,1225.125171,-9035.298138
1168.200634,-76.570323,1339.980656,-9150.153622
1168.203207,-1856.830338,1837.687757,-8863.014910
1168.205779,-1550.549045,650.847747,-8920.442653
1168.208352,-2182.254211,-784.845813,-8958.727814
1168.210924,-1301.695494,-880.558717,-9303.294269
1168.213497,-689.132909,-497.707101,-9303.294269
1168.216069,918.843878,1110.269686,-9054.440718
1168.218642,1282.552914,-2048.256146,-8863.014910
1168.221214,133.998066,57.427742,-9073.583299
1168.223771,-440.279358,-1875.972918,-9092.725880
1168.226328,-1110.269686,57.427742,-8939.585234
1168.228885,-401.994197,-153.140646,-9111.868461
1168.231442,-765.703232,-344.566454,-9111.868461
1168.233999,57.427742,-1052.841944,-9111.868461
1168.236556,555.134843,-918.843878,-9207.581365
1168.239113,172.283227,-612.562586,-9188.438784
1168.241671,172.283227,-325.423874,-9284.151688
1168.244228,-306.281293,-631.705166,-8939.585234
1168.246785,-650.847747,765.703232,-8939.585234
1168.249342,-727.418070,-2603.390989,-9284.151688
1168.251899,-937.986459,421.136778,-9092.725880
1168.254456,19.142581,478.564520,-9054.440718
1168.257013,-535.992262,-1914.258080,-9035.298138
1168.259570,-478.564520,-612.562586,-9054.440718
1168.262127,325.423874,-2775.674216,-9456.434915
1168.264684,210.568389,1320.838075,-9131.011042
1168.267241,1435.693560,-1933.400661,-9207.581365
1168.269798,-325.423874,-19.142581,-8729.016845
1168.272355,459.421939,-1875.972918,-9207.581365
1168.274912,-1339.980656,-842.273555,-9150.153622
1168.277469,57.427742,-95.712904,-9169.296203
1168.280026,-248.853550,-267.996131,-9150.153622
1168.282584,-784.845813,995.414202,-9016.155557
1168.285141,-210.568389,-2354.537438,-9188.438784
1168.287698,-555.134843,172.283227,-9016.155557
1168.290255,-976.271621,1301.695494,-9169.296203
1168.292812,-1952.543242,1684.547110,-8843.872330
1168.295369,-382.851616,535.992262,-9035.298138
1168.297926,-1799.402595,-344.566454,-8977.870395
1168.300483,-1512.263883,765.703232,-9169.296203
1168.303040,-1473.978722,842.273555,-8843.872330
1168.305597,-1014.556782,1952.543242,-9035.298138
1168.308154,-306.281293,-650.847747,-9169.296203
1168.310711,-1282.552914,-421.136778,-9073.583299
1168.313268,-861.416136,344.566454,-9092.725880
1168.315825,-1205.982590,1531.406464,-8863.014910
1168.318382,-823.130974,1186.840010,-8767.302006
1168.320939,-2411.965181,535.992262,-9111.868461
1168.323497,-1493.121302,-382.851616,-8997.012976
1168.326057,-1627.119368,-133.998066,-9111.868461
1168.328618,-708.275490,689.132909,-9131.011042
1168.331178,-842.273555,1225.125171,-8920.442653
1168.333739,-1167.697429,1646.261949,-8805.587168
1168.336299,-1186.840010,1244.267752,-8863.014910
1168.338860,-2086.541307,440.279358,-9054.440718
1168.341421,-2201.396792,823.130974,-9016.155557
1168.343981,-1952.543242,401.994197,-8958.727814
1168.346542,-1110.269686,803.988394,-9188.438784
1168.349102,-133.998066,229.710970,-9111.868461
1168.351663,-267.996131,0.000000,-9054.440718
1168.354223,-861.416136,1665.404530,-9073.583299
1168.356784,-1033.699363,1129.412267,-8977.870395
1168.359344,-1952.543242,1244.267752,-8843.872330
1168.361905,-1569.691626,-1684.547110,-9035.298138
1168.364466,-1550.549045,1186.840010,-9131.011042
1168.367026,-937.986459,-1818.545176,-9226.723946
1168.369587,650.847747,1148.554848,-9054.440718
1168.372147,1493.121302,-2488.535504,-9111.868461
1168.374708,574.277424,1052.841944,-9111.868461
1168.377268,-612.562586,-2163.111630,-9016.155557
1168.379829,-1378.265818,497.707101,-8939.585234
1168.382390,-382.851616,-1129.412267,-9226.723946
1168.384950,-880.558717,-114.855485,-9131.011042
1168.387511,95.712904,-1339.980656,-9169.296203
1168.390071,248.853550,-708.275490,-9150.153622
1168.392632,325.423874,95.712904,-9150.153622
1168.395192,516.849682,-937.986459,-9303.294269
1168.397753,-593.420005,191.425808,-8920.442653
1168.400314,-708.275490,-2316.252277,-9111.868461
1168.402874,-2488.535504,-612.562586,-9073.583299
1168.405435,229.710970,2277.967115,-9226.723946
1168.407995,861.416136,-2813.959378,-9092.725880
1168.410556,-1588.834206,631.705166,-8786.444587
1168.413116,1588.834206,-2316.252277,-9188.438784
1168.415677,-861.416136,861.416136,-9111.868461
1168.418238,1435.693560,-440.279358,-9341.579430
1168.420798,-57.427742,-1148.554848,-8997.012976
1168.423359,593.420005,-267.996131,-8939.585234
1168.425919,-191.425808,-2622.533570,-9341.579430
1168.428483,-995.414202,1225.125171,-8997.012976
1168.431046,401.994197,-1378.265818,-9265.009107
1168.433609,-1493.121302,1339.980656,-9016.155557
1168.436173,19.142581,-2258.824534,-9226.723946
1168.438736,-267.996131,-114.855485,-8997.012976
1168.441299,-114.855485,-191.425808,-9035.298138
1168.443863,-689.132909,2316.252277,-8786.444587
1168.446426,-689.132909,1129.412267,-8882.157491
1168.448990,-1722.832272,-669.990328,-9035.298138
1168.451553,-2335.394858,363.709035,-9188.438784
1168.454116,-1282.552914,803.988394,-8958.727814
1168.456680,-1397.408398,1799.402595,-8920.442653
1168.459243,-918.843878,555.134843,-9092.725880
1168.461806,-880.558717,-153.140646,-9054.440718
1168.464370,-708.275490,287.138712,-9092.725880
1168.466933,-957.129040,1052.841944,-8901.300072
1168.469497,-1359.123237,2488.535504,-8709.874264
1168.472060,-1722.832272,574.277424,-9073.583299
1168.474623,-2718.246474,-19.142581,-8882.157491
1168.477187,-287.138712,2029.113565,-9111.868461
1168.479750,-172.283227,-497.707101,-9092.725880
1168.482313,-344.566454,76.570323,-9054.440718
1168.484877,-1397.408398,191.425808,-8824.729749
1168.487440,-1665.404530,1531.406464,-8863.014910
1168.490004,-2603.390989,-229.710970,-9150.153622
1168.492567,-2086.541307,957.129040,-9016.155557
1168.495130,-650.847747,497.707101,-8958.727814
1168.497694,-1607.976787,1454.836141,-8958.727814
1168.500257,-172.283227,-172.283227,-9111.868461
1168.502820,-765.703232,0.000000,-9054.440718
1168.505384,-1014.556782,1607.976787,-9016.155557
1168.507947,-1225.125171,421.136778,-8997.012976
1168.510511,-2086.541307,516.849682,-8939.585234
1168.513074,-1397.408398,-1397.408398,-9150.153622
1168.515637,-1014.556782,2622.533570,-8901.300072
1168.518201,-95.712904,-2871.387120,-9265.009107
1168.520764,133.998066,918.843878,-9016.155557
1168.523327,842.273555,-937.986459,-9341.579430
1168.525891,-19.142581,-669.990328,-9016.155557
1168.528454,-421.136778,-516.849682,-8997.012976
1168.531020,-497.707101,-210.568389,-8958.727814
1168.533586,-1397.408398,-899.701298,-9169.296203
1168.536152,-516.849682,-1301.695494,-9226.723946
1168.538718,-95.712904,-401.994197,-9188.438784
1168.541284,1129.412267,-19.142581,-9035.298138
1168.543850,306.281293,306.281293,-9073.583299
1168.546416,-57.427742,-957.129040,-9073.583299
1168.548982,-2009.970984,708.275490,-8939.585234
1168.551548,0.000000,-765.703232,-8939.585234
1168.554114,-19.142581,-76.570323,-9092.725880
1168.556680,-306.281293,2163.111630,-8920.442653
1168.559246,-287.138712,-2565.105827,-9188.438784
1168.561812,-1033.699363,306.281293,-9111.868461
1168.564378,1052.841944,-1990.828403,-9456.434915
1168.566944,-38.285162,-421.136778,-9073.583299
1168.569510,861.416136,-248.853550,-9035.298138
1168.572076,-191.425808,-1205.982590,-9092.725880
1168.574642,19.142581,0.000000,-9092.725880
1168.577208,-612.562586,-1110.269686,-9150.153622
1168.579774,-803.988394,669.990328,-9111.868461
1168.582340,-650.847747,-746.560651,-9073.583299
1168.584906,-382.851616,-382.851616,-9073.583299
1168.587472,440.279358,-1378.265818,-9054.440718
1168.590038,-1186.840010,2048.256146,-9092.725880
1168.592604,-899.701298,1703.689691,-8767.302006
1168.595170,-593.420005,229.710970,-8863.014910
1168.597736,-1895.115499,-38.285162,-9073.583299
1168.600302,-1722.832272,497.707101,-9111.868461
1168.602868,-1799.402595,1435.693560,-8882.157491
1168.605434,-1416.550979,1378.265818,-8958.727814
1168.608000,-899.701298,555.134843,-9092.725880
1168.610566,-765.703232,-401.994197,-9073.583299
1168.613132,-650.847747,-57.427742,-9016.155557
1168.615698,-1186.840010,1416.550979,-8824.729749
1168.618264,-1071.984525,1129.412267,-8882.157491
1168.620830,-2239.681954,-421.136778,-9322.436850
1168.623396,-2411.965181,1703.689691,-8997.012976
1168.625962,861.416136,-631.705166,-9207.581365
1168.628528,-344.566454,-172.283227,-9207.581365
1168.631094,-995.414202,765.703232,-8863.014910
1168.633663,-1895.115499,2431.107762,-8786.444587
1168.636231,-2143.969050,267.996131,-9035.298138
1168.638800,-2545.963246,306.281293,-9150.153622
1168.641368,-1301.695494,38.285162,-9073.583299
1168.643937,-1339.980656,689.132909,-9035.298138
1168.646505,-497.707101,1129.412267,-9150.153622
1168.649073,-727.418070,172.283227,-9111.868461
1168.651642,-708.275490,1473.978722,-8958.727814
1168.654210,-1052.841944,-38.285162,-8977.870395
1168.656779,-1952.543242,880.558717,-8920.442653
1168.659347,-1091.127106,-1435.693560,-9016.155557
1168.661915,-1205.982590,2871.387120,-9035.298138
1168.664484,-823.130974,-2545.963246,-9188.438784
1168.667052,248.853550,880.558717,-8863.014910
1168.669621,995.414202,-2718.246474,-9265.009107
1168.672189,899.701298,382.851616,-9131.011042
1168.674757,248.853550,-1129.412267,-9092.725880
1168.677326,-899.701298,363.709035,-8920.442653
1168.679894,-1091.127106,-1263.410333,-9092.725880
1168.682463,-459.421939,-1282.552914,-9188.438784
1168.685031,-95.712904,-995.414202,-9207.581365
1168.687600,421.136778,-823.130974,-9131.011042
1168.690168,440.279358,497.707101,-8997.012976
1168.692736,114.855485,-880.558717,-9169.296203
1168.695305,-382.851616,-2029.113565,-9111.868461
1168.697873,-823.130974,-1990.828403,-8997.012976
1168.700442,-210.568389,-421.136778,-9303.294269
1168.703010,-440.279358,-2392.822600,-9245.866526
1168.705578,-995.414202,325.423874,-8958.727814
1168.708147,555.134843,-1952.543242,-9131.011042
1168.710715,114.855485,-976.271621,-9245.866526
1168.713284,803.988394,-1339.980656,-9552.147819
1168.715854,0.000000,-669.990328,-8958.727814
1168.718424,153.140646,-191.425808,-8997.012976
1168.720994,-689.132909,-937.986459,-9054.440718
1168.723565,-306.281293,-803.988394,-9111.868461
1168.726135,-689.132909,-344.566454,-9131.011042
1168.728705,-1301.695494,-57.427742,-9111.868461
1168.731276,229.710970,-1244.267752,-9131.011042
1168.733846,-114.855485,-172.283227,-9054.440718
1168.736416,-650.847747,2775.674216,-8939.585234
1168.738986,-1933.400661,-248.853550,-8977.870395
1168.741557,-1856.830338,1473.978722,-8958.727814
1168.744127,-1186.840010,-918.843878,-9150.153622
1168.746697,-1722.832272,1416.550979,-8920.442653
1168.749267,-1416.550979,899.701298,-8997.012976
1168.751838,-1722.832272,1933.400661,-8997.012976
1168.754408,-267.996131,-344.566454,-9150.153622
1168.756978,-823.130974,-478.564520,-9016.155557
1168.759548,-880.558717,1014.556782,-9035.298138
1168.762119,-1282.552914,937.986459,-8748.159426
1168.764689,-1895.115499,1550.549045,-8977.870395
1168.767259,-1359.123237,-1071.984525,-8958.727814
1168.769829,-2584.248408,1607.976787,-9111.868461
1168.772400,650.847747,-669.990328,-9399.007173
1168.774970,-765.703232,-1473.978722,-8997.012976
1168.777540,-1320.838075,3407.379382,-8843.872330
1168.780110,-1646.261949,-765.703232,-8920.442653
1168.782681,-3196.810994,1856.830338,-8786.444587
1168.785251,-1225.125171,-708.275490,-9303.294269
1168.787821,-2258.824534,823.130974,-8863.014910
1168.790391,-459.421939,861.416136,-9092.725880
1168.792962,-1282.552914,363.709035,-9016.155557
1168.795532,-1244.267752,2813.959378,-8805.587168
1168.798102,-746.560651,-957.129040,-9035.298138
1168.800672,-2086.541307,1301.695494,-8882.157491
1168.803243,-555.134843,-2009.970984,-9188.438784
1168.805813,-1627.119368,2947.957443,-8977.870395
1168.808383,-784.845813,-1856.830338,-9169.296203
1168.810953,114.855485,937.986459,-8920.442653
1168.813524,593.420005,-2392.822600,-9226.723946
1168.816094,1129.412267,535.992262,-9111.868461
1168.818666,-248.853550,-1148.554848,-9073.583299
1168.821238,-899.701298,248.853550,-8958.727814
1168.823809,-612.562586,-861.416136,-9073.583299
1168.826381,-823.130974,-1569.691626,-9207.581365
1168.828953,-172.283227,-1110.269686,-9207.581365
1168.831525,497.707101,-535.992262,-9073.583299
1168.834097,478.564520,535.992262,-9131.011042
1168.836668,497.707101,-153.140646,-8939.585234
1168.839240,-861.416136,-1914.258080,-9092.725880
1168.841812,-1550.549045,-880.558717,-8920.442653
1168.844384,-287.138712,459.421939,-9188.438784
1168.846956,497.707101,382.851616,-9054.440718
1168.849527,-172.283227,-421.136778,-8863.014910
1168.852099,-57.427742,-1129.412267,-8958.727814
1168.854671,593.420005,-1627.119368,-9245.866526
1168.857243,363.709035,-95.712904,-9399.007173
1168.859815,727.418070,-976.271621,-9054.440718
1168.862386,-306.281293,-746.560651,-8901.300072
1168.864958,-459.421939,-267.996131,-9073.583299
1168.867530,-612.562586,-689.132909,-9092.725880
1168.870102,-842.273555,727.418070,-9111.868461
1168.872674,-172.283227,-1627.119368,-9188.438784
1168.875245,95.712904,-306.281293,-9054.440718
1168.877817,-267.996131,727.418070,-9092.725880
1168.880389,-842.273555,2124.826469,-8709.874264
1168.882961,-765.703232,-76.570323,-8920.442653
1168.885533,-2143.969050,593.420005,-8977.870395
1168.888104,-2029.113565,-478.564520,-9169.296203
1168.890676,-1780.260014,1014.556782,-8958.727814
1168.893248,-1359.123237,2833.101958,-8977.870395
1168.895820,-401.994197,-38.285162,-9226.723946
1168.898392,-708.275490,-38.285162,-8977.870395
1168.900963,-516.849682,-669.990328,-9016.155557
1168.903535,-1512.263883,1493.121302,-8939.585234
1168.906107,-1052.841944,1378.265818,-8843.872330
1168.908679,-1933.400661,3311.666478,-8920.442653
1168.911251,-861.416136,1531.406464,-9111.868461
1168.913822,440.279358,133.998066,-9035.298138
1168.916394,57.427742,555.134843,-8997.012976
1168.918966,-1435.693560,421.136778,-8882.157491
1168.921522,-2105.683888,1722.832272,-8863.014910
1168.924078,-1990.828403,-593.420005,-9016.155557
1168.926635,-2048.256146,1244.267752,-9131.011042
1168.929191,-1359.123237,-306.281293,-9073.583299
1168.931747,-1205.982590,1799.402595,-8920.442653
1168.934303,-459.421939,114.855485,-9150.153622
1168.936859,-957.129040,2086.541307,-8939.585234
1168.939415,-765.703232,421.136778,-8977.870395
1168.941972,-1799.402595,-133.998066,-8920.442653
1168.944528,-1014.556782,-669.990328,-9131.011042
1168.947084,-1225.125171,1875.972918,-9035.298138
1168.949640,-823.130974,-1378.265818,-9150.153622
1168.952196,191.425808,267.996131,-8939.585234
1168.954752,669.990328,-3024.527766,-9169.296203
1168.957309,976.271621,535.992262,-9169.296203
1168.959865,153.140646,-746.560651,-9092.725880
1168.962421,-937.986459,306.281293,-8939.585234
1168.964977,-535.992262,-727.418070,-9035.298138
1168.967533,-899.701298,-1646.261949,-9284.151688
1168.970089,-631.705166,-842.273555,-9169.296203
1168.972645,631.705166,-248.853550,-9054.440718
1168.975202,593.420005,363.709035,-9131.011042
1168.977758,765.703232,842.273555,-8805.587168
1168.980314,-593.420005,-1875.972918,-8997.012976
1168.982870,-1837.687757,-976.271621,-8843.872330
1168.985426,-287.138712,-2163.111630,-9456.434915
1168.987982,-382.851616,-1397.408398,-9303.294269
1168.990539,-191.425808,-306.281293,-9035.298138
1168.993095,669.990328,-2163.111630,-9054.440718
1168.995651,248.853550,-957.129040,-9322.436850
1168.998207,995.414202,-2124.826469,-9437.292334
1169.000763,-76.570323,191.425808,-9092.725880
1169.003319,-114.855485,-650.847747,-9035.298138
1169.005876,-1148.554848,-382.851616,-9073.583299
1169.008432,-957.129040,133.998066,-9073.583299
1169.010988,-440.279358,-1607.976787,-9169.296203
1169.013544,-306.281293,-555.134843,-9188.438784
1169.016100,516.849682,-593.420005,-9207.581365
1169.018656,-861.416136,3235.096155,-8882.157491
1169.021213,-1875.972918,-459.421939,-8958.727814
1169.023772,-2124.826469,1282.552914,-8882.157491
1169.026331,-2029.113565,-267.996131,-9284.151688
1169.028891,-1531.406464,1416.550979,-8882.157491
1169.031450,-1493.121302,1895.115499,-8901.300072
1169.034009,-1359.123237,842.273555,-9054.440718
1169.036569,-19.142581,153.140646,-9188.438784
1169.039128,-535.992262,-497.707101,-9054.440718
1169.041688,-957.129040,478.564520,-9131.011042
1169.044247,-1665.404530,899.701298,-8958.727814
1169.046806,-1454.836141,2852.244539,-8786.444587
1169.049366,-1301.695494,-3273.381317,-9188.438784
1169.051925,-1818.545176,5168.496816,-9073.583299
1169.054485,727.418070,-3426.521963,-9628.718142
1169.057044,-1607.976787,1607.976787,-8595.018779
1169.059603,-1110.269686,2220.539373,-9150.153622
1169.062163,-3196.810994,-918.843878,-8633.303941
1169.064722,-2986.242605,3273.381317,-9054.440718
1169.067281,-497.707101,-1378.265818,-9265.009107
1169.069841,-1971.685822,1971.685822,-8882.157491
1169.072400,363.709035,803.988394,-9188.438784
1169.074960,-1914.258080,2297.109696,-8786.444587
1169.077519,-153.140646,535.992262,-8958.727814
1169.080078,-1148.554848,-153.140646,-8997.012976
1169.082638,-1416.550979,-1282.552914,-9188.438784
1169.085197,-19.142581,2239.681954,-9054.440718
1169.087756,-1359.123237,-1531.406464,-9016.155557
1169.090316,382.851616,210.568389,-8958.727814
1169.092875,172.283227,-2813.959378,-9131.011042
1169.095435,1110.269686,957.129040,-9207.581365
1169.097994,287.138712,-1493.121302,-9226.723946
1169.100553,-899.701298,306.281293,-9035.298138
1169.103113,-153.140646,-306.281293,-9035.298138
1169.105672,-765.703232,-1627.119368,-9169.296203
1169.108232,-440.279358,-1071.984525,-9245.866526
1169.110791,650.847747,-1167.697429,-9341.579430
1169.113350,727.418070,861.416136,-8901.300072
1169.115910,363.709035,421.136778,-9054.440718
1169.118469,-727.418070,-1684.547110,-9188.438784
1169.121028,-1473.978722,-803.988394,-8882.157491
1169.123588,-1110.269686,899.701298,-9322.436850
1169.126150,1148.554848,-1129.412267,-9226.723946
1169.128713,-401.994197,95.712904,-9035.298138
1169.131275,1148.554848,-1875.972918,-9150.153622
1169.133837,344.566454,-401.994197,-9322.436850
1169.136400,1397.408398,-1550.549045,-9418.149754
1169.138962,-267.996131,-650.847747,-9073.583299
1169.141525,-478.564520,-306.281293,-8997.012976
1169.144087,-899.701298,-95.712904,-9016.155557
1169.146650,-1320.838075,114.855485,-9073.583299
1169.149212,57.427742,-1627.119368,-9207.581365
1169.151774,-38.285162,-555.134843,-9169.296203
1169.154337,-153.140646,1856.830338,-9188.438784
1169.156899,-1263.410333,1665.404530,-8824.729749
1169.159462,-133.998066,842.273555,-8729.016845
1169.162024,-1493.121302,-880.558717,-9054.440718
1169.164587,-2277.967115,803.988394,-9169.296203
1169.167149,-1665.404530,957.129040,-8920.442653
1169.169711,-1933.400661,2794.816797,-8920.442653
1169.172274,-363.709035,-114.855485,-9150.153622
1169.174836,-593.420005,191.425808,-9111.868461
1169.177399,-248.853550,-899.701298,-9092.725880
1169.179961,-1014.556782,1588.834206,-8786.444587
1169.182523,-1244.267752,1244.267752,-8786.444587
1169.185086,-3196.810994,1071.984525,-8958.727814
1169.187648,-382.851616,210.568389,-9265.009107
1169.190211,516.849682,-1071.984525,-9284.151688
1169.192773,-1148.554848,0.000000,-8863.014910
1169.195336,-1531.406464,2450.250342,-8748.159426
1169.197898,-2354.537438,937.986459,-8882.157491
1169.200460,-2737.389054,325.423874,-9092.725880
1169.203023,-1837.687757,-440.279358,-9092.725880
1169.205585,-976.271621,593.420005,-8901.300072
1169.208148,-708.275490,1875.972918,-9131.011042
1169.210710,-1071.984525,1856.830338,-8958.727814
1169.213273,-803.988394,650.847747,-8843.872330
1169.215835,-1531.406464,-746.560651,-9016.155557
1169.218397,-1129.412267,-1454.836141,-9245.866526
1169.220960,-765.703232,2086.541307,-8997.012976
1169.223522,-306.281293,-1244.267752,-9054.440718
1169.226085,-401.994197,306.281293,-8863.014910
1169.228650,267.996131,-3292.523898,-9169.296203
1169.231215,650.847747,650.847747,-9131.011042
1169.233780,631.705166,-842.273555,-9284.151688
1169.236345,-574.277424,-19.142581,-8920.442653
1169.238910,-1435.693560,-957.129040,-9016.155557
1169.241475,-248.853550,-2029.113565,-9169.296203
1169.244040,-650.847747,-19.142581,-9111.868461
1169.246606,861.416136,-287.138712,-9092.725880
1169.249171,-229.710970,-287.138712,-9131.011042
1169.251736,-267.996131,287.138712,-8786.444587
1169.254301,-459.421939,363.709035,-8920.442653
1169.256866,-1071.984525,-2775.674216,-9265.009107
1169.259431,-248.853550,-957.129040,-9188.438784
1169.261996,-38.285162,-248.853550,-9188.438784
1169.264561,114.855485,-1359.123237,-9207.581365
1169.267127,210.568389,-516.849682,-9054.440718
1169.269692,1473.978722,-2986.242605,-9169.296203
1169.272257,210.568389,-114.855485,-9265.009107
1169.274822,210.568389,-631.705166,-9169.296203
1169.277387,-1071.984525,-497.707101,-9073.583299
1169.279952,-1091.127106,344.566454,-8901.300072
1169.282517,-784.845813,-1856.830338,-9111.868461
1169.285082,-38.285162,-708.275490,-9111.868461
1169.287647,325.423874,-401.994197,-9303.294269
1169.290213,-478.564520,3560.520029,-8882.157491
1169.292778,-1052.841944,-1148.554848,-9035.298138
1169.295343,-2584.248408,1397.408398,-8863.014910
1169.297908,-2105.683888,-229.710970,-9245.866526
1169.300473,-1780.260014,1110.269686,-8977.870395
1169.303038,-1569.691626,2469.392923,-8805.587168
1169.305603,-1186.840010,57.427742,-9016.155557
1169.308168,-650.847747,957.129040,-9035.298138
1169.310734,-344.566454,-612.562586,-9207.581365
1169.313299,-1244.267752,1052.841944,-9035.298138
1169.315864,-1722.832272,210.568389,-9016.155557
1169.318429,-2584.248408,2833.101958,-8748.159426
1169.320994,-1205.982590,516.849682,-9284.151688
1169.323559,-95.712904,-1148.554848,-9418.149754
1169.326124,-689.132909,248.853550,-8939.585234
1169.328689,-1588.834206,2316.252277,-8901.300072
1169.331256,-2239.681954,1263.410333,-8748.159426
1169.333823,-2182.254211,1320.838075,-8863.014910
1169.336390,-1818.545176,-172.283227,-9035.298138
1169.338957,-1454.836141,287.138712,-8939.585234
1169.341525,-689.132909,2067.398726,-9150.153622
1169.344092,-1148.554848,1378.265818,-9016.155557
1169.346659,-593.420005,1301.695494,-8729.016845
1169.349226,-1531.406464,-1301.695494,-8977.870395
1169.351793,-1378.265818,-1033.699363,-9341.579430
1169.354360,-1052.841944,1148.554848,-9092.725880
1169.356927,-95.712904,-784.845813,-9054.440718
1169.359494,-287.138712,-287.138712,-8958.727814
1169.362061,-57.427742,-2220.539373,-9207.581365
1169.364628,401.994197,401.994197,-9054.440718
1169.367195,287.138712,-631.705166,-9226.723946
1169.369762,-325.423874,-401.994197,-9054.440718
1169.372329,-1033.699363,-1110.269686,-8958.727814
1169.374896,19.142581,-1722.832272,-9073.583299
1169.377463,-918.843878,-287.138712,-9169.296203
1169.380030,478.564520,-1244.267752,-9284.151688
1169.382597,172.283227,-1052.841944,-9437.292334
1169.385164,-976.271621,-1473.978722,-9092.725880
1169.387731,-1282.552914,631.705166,-8882.157491
1169.390298,287.138712,-746.560651,-9188.438784
1169.392865,535.992262,-1033.699363,-9418.149754
1169.395432,440.279358,210.568389,-8901.300072
1169.397999,937.986459,-976.271621,-9016.155557
1169.400566,95.712904,-650.847747,-9054.440718
1169.403133,1225.125171,-1588.834206,-9169.296203
1169.405701,497.707101,-1263.410333,-9150.153622
1169.408268,-172.283227,-248.853550,-9092.725880
1169.410835,-937.986459,344.566454,-9035.298138
1169.413402,-1473.978722,-191.425808,-9016.155557
1169.415969,-306.281293,-1512.263883,-9111.868461
1169.418536,210.568389,-765.703232,-9265.009107
1169.421103,-784.845813,2584.248408,-9169.296203
1169.423670,-1339.980656,593.420005,-8901.300072
1169.426237,-650.847747,1397.408398,-8843.872330
1169.428804,-1627.119368,-535.992262,-9016.155557
1169.431371,-1914.258080,459.421939,-9054.440718
1169.433940,-1990.828403,1569.691626,-9035.298138
1169.436509,-1933.400661,1971.685822,-9035.298138
1169.439077,-689.132909,1129.412267,-9035.298138
1169.441646,-516.849682,-516.849682,-9092.725880
1169.444215,-976.271621,-727.418070,-9169.296203
1169.446784,-401.994197,1569.691626,-8920.442653
1169.449353,-1205.982590,2852.244539,-8863.014910
1169.451921,-1665.404530,-306.281293,-8939.585234
1169.454490,-363.709035,-746.560651,-9188.438784
1169.457059,-708.275490,-172.283227,-9131.011042
1169.459628,-1607.976787,1722.832272,-9131.011042
1169.462197,-1646.261949,1416.550979,-8805.587168
1169.464765,-2258.824534,1741.974853,-8863.014910
1169.467334,-2143.969050,153.140646,-9150.153622
1169.469903,-1971.685822,325.423874,-9111.868461
1169.472472,-803.988394,1741.974853,-9035.298138
1169.475041,-1186.840010,1263.410333,-8977.870395
1169.477609,-497.707101,1646.261949,-8977.870395
1169.480178,-1454.836141,-1263.410333,-8958.727814
1169.482747,-1435.693560,-937.986459,-9265.009107
1169.485316,-229.710970,1244.267752,-9054.440718
1169.487885,-382.851616,-1205.982590,-9073.583299
1169.490454,57.427742,-593.420005,-8997.012976
1169.493022,-287.138712,-1684.547110,-9092.725880
1169.495591,306.281293,401.994197,-9073.583299
1169.498160,153.140646,-861.416136,-9092.725880
1169.500729,-306.281293,-689.132909,-9150.153622
1169.503298,-19.142581,-727.418070,-9188.438784
1169.505866,-382.851616,-1607.976787,-9073.583299
1169.508435,-650.847747,-287.138712,-8977.870395
1169.511004,325.423874,-267.996131,-9073.583299
1169.513573,976.271621,1359.123237,-8939.585234
1169.516142,-153.140646,-2354.537438,-9131.011042
1169.518710,-1684.547110,-535.992262,-8671.589102
1169.521279,-669.990328,593.420005,-9016.155557
1169.523848,153.140646,-1378.265818,-9303.294269
1169.526417,574.277424,248.853550,-8939.585234
1169.528986,1607.976787,-2086.541307,-9054.440718
1169.531554,114.855485,-765.703232,-9207.581365
1169.534123,631.705166,-1703.689691,-9322.436850
1169.536694,133.998066,-191.425808,-9092.725880
1169.539264,133.998066,-918.843878,-9131.011042
1169.541834,-1473.978722,765.703232,-8958.727814
1169.544405,-1110.269686,-784.845813,-9035.298138
1169.546975,114.855485,-1799.402595,-9092.725880
1169.549546,-306.281293,746.560651,-9150.153622
1169.552116,-38.285162,2029.113565,-9073.583299
1169.554686,-1225.125171,401.994197,-8863.014910
1169.557257,-1722.832272,191.425808,-8901.300072
1169.559827,-2029.113565,-401.994197,-9111.868461
1169.562397,-1761.117434,976.271621,-8958.727814
1169.564968,-1435.693560,1914.258080,-8882.157491
1169.567538,-1588.834206,1033.699363,-8997.012976
1169.570109,-708.275490,497.707101,-9054.440718
1169.572679,-574.277424,-325.423874,-9054.440718
1169.575249,-1129.412267,-114.855485,-9131.011042
1169.577820,-535.992262,1148.554848,-8882.157491
1169.580390,-2679.961312,1339.980656,-8843.872330
1169.582960,-1320.838075,899.701298,-9131.011042
1169.585531,-669.990328,803.988394,-9131.011042
1169.588101,-1320.838075,344.566454,-8901.300072
1169.590672,-1263.410333,1837.687757,-8767.302006
1169.593242,-2182.254211,1837.687757,-8786.444587
1169.595812,-2507.678085,727.418070,-8901.300072
1169.598383,-2297.109696,535.992262,-9188.438784
1169.600953,-976.271621,-306.281293,-9073.583299
1169.603524,-1320.838075,2316.252277,-8977.870395
1169.606094,-689.132909,957.129040,-8939.585234
1169.608664,-1167.697429,-191.425808,-8958.727814
1169.611235,-880.558717,-1167.697429,-9111.868461
1169.613805,-95.712904,1646.261949,-9016.155557
1169.616375,-574.277424,-2048.256146,-9054.440718
1169.618946,-95.712904,1129.412267,-9016.155557
1169.621516,19.142581,-2335.394858,-9226.723946
1169.624087,133.998066,516.849682,-9016.155557
1169.626657,114.855485,-1129.412267,-9016.155557
1169.629227,-497.707101,-459.421939,-9150.153622
1169.631798,-19.142581,-248.853550,-9150.153622
1169.634368,-95.712904,-1703.689691,-9111.868461
1169.636938,-344.566454,-421.136778,-9016.155557
1169.639493,-95.712904,-823.130974,-9092.725880
1169.642048,708.275490,1225.125171,-8863.014910
1169.644603,459.421939,-1473.978722,-9226.723946
1169.647157,-1359.123237,-842.273555,-8920.442653
1169.649712,-1033.699363,765.703232,-9054.440718
1169.652267,593.420005,-1263.410333,-9226.723946
1169.654821,210.568389,19.142581,-9131.011042
1169.657376,1646.261949,-2297.109696,-9035.298138
1169.659931,172.283227,57.427742,-9073.583299
1169.662485,842.273555,-803.988394,-9188.438784
1169.665040,-210.568389,-823.130974,-9131.011042
1169.667595,325.423874,-76.570323,-8958.727814
1169.670149,-1454.836141,-133.998066,-9016.155557
1169.672704,-1167.697429,-880.558717,-9092.725880
1169.675259,95.712904,-1722.832272,-9150.153622
1169.677813,-689.132909,861.416136,-9169.296203
1169.680368,-210.568389,1837.687757,-9016.155557
1169.682923,-497.707101,803.988394,-8882.157491
1169.685477,-1722.832272,-114.855485,-8997.012976
1169.688032,-2029.113565,-191.425808,-9016.155557
1169.690587,-1684.547110,1244.267752,-8901.300072
1169.693141,-1588.834206,2373.680019,-8958.727814
1169.695696,-1416.550979,842.273555,-9073.583299
1169.698251,-1033.699363,210.568389,-8958.727814
1169.700805,-708.275490,631.705166,-9016.155557
1169.703360,-1091.127106,-191.425808,-9092.725880
1169.705915,-1607.976787,3215.953574,-8690.731683
1169.708469,19.142581,1971.685822,-9092.725880
1169.711024,-1646.261949,-3809.373579,-8824.729749
1169.713579,-1263.410333,5359.922624,-9226.723946
1169.716134,-1435.693560,-3771.088418,-9207.581365
1169.718688,-1780.260014,5206.781978,-8767.302006
1169.721243,-612.562586,153.140646,-8958.727814
1169.723798,-2947.957443,957.129040,-8805.587168
1169.726352,-1627.119368,765.703232,-9265.009107
1169.728907,-1761.117434,1148.554848,-9092.725880
1169.731462,-650.847747,1148.554848,-8920.442653
1169.734016,-535.992262,153.140646,-8977.870395
1169.736571,-1646.261949,-421.136778,-8997.012976
1169.739126,-210.568389,-287.138712,-9245.866526
1169.741684,-1990.828403,-823.130974,-9131.011042
1169.744241,133.998066,440.279358,-9188.438784
1169.746799,38.285162,-2392.822600,-9054.440718
1169.749357,191.425808,-38.285162,-9207.581365
1169.751915,-57.427742,-918.843878,-8997.012976
1169.754473,-669.990328,478.564520,-8863.014910
1169.757031,172.283227,-1607.976787,-9169.296203
1169.759589,-631.705166,-1263.410333,-9245.866526
1169.762147,363.709035,-746.560651,-9188.438784
1169.764705,-191.425808,-421.136778,-9035.298138
1169.767263,382.851616,1550.549045,-8824.729749
1169.769820,363.709035,-2335.394858,-9226.723946
1169.772378,-2105.683888,-287.138712,-8939.585234
1169.774936,401.994197,-1205.982590,-9169.296203
1169.777494,-880.558717,-2488.535504,-9016.155557
1169.780052,133.998066,555.134843,-8958.727814
1169.782610,1531.406464,-2067.398726,-9111.868461
1169.785168,478.564520,172.283227,-8958.727814
1169.787726,1339.980656,-2411.965181,-9207.581365
1169.790284,-267.996131,-19.142581,-8977.870395
1169.792842,248.853550,-1186.840010,-9188.438784
1169.795399,-2009.970984,1091.127106,-8958.727814
1169.797957,-516.849682,-1588.834206,-8997.012976
1169.800515,114.855485,-1837.687757,-9131.011042
1169.803073,-708.275490,1990.828403,-9073.583299
1169.805631,-497.707101,1339.980656,-8997.012976
1169.808189,-899.701298,937.986459,-8863.014910
1169.810747,-1225.125171,-114.855485,-8958.727814
1169.813305,-2431.107762,-95.712904,-9054.440718
1169.815863,-1244.267752,1091.127106,-8901.300072
1169.818421,-1722.832272,2392.822600,-8997.012976
1169.820978,-1129.412267,957.129040,-9073.583299
1169.823536,-918.843878,-248.853550,-8977.870395
1169.826094,-784.845813,229.710970,-8939.585234
1169.828652,-1301.695494,-133.998066,-9150.153622
1169.831210,-1646.261949,-229.710970,-8882.157491
1169.833768,-1473.978722,3445.664544,-8863.014910
1169.836326,-1741.974853,-1339.980656,-9379.864592
1169.838884,-1186.840010,1684.547110,-8882.157491
1169.841442,-1339.980656,-57.427742,-9303.294269
1169.844003,-2603.390989,1052.841944,-8843.872330
1169.846563,-1588.834206,1301.695494,-8786.444587
1169.849124,-2584.248408,899.701298,-9092.725880
1169.851685,-1818.545176,1244.267752,-9284.151688
1169.854246,-1646.261949,229.710970,-9035.298138
1169.856807,-1607.976787,1856.830338,-8939.585234
1169.859368,-612.562586,-1071.984525,-9092.725880
1169.861929,-765.703232,-133.998066,-9092.725880
1169.864490,-421.136778,1818.545176,-8920.442653
1169.867051,-382.851616,-2029.113565,-9150.153622
1169.869612,172.283227,669.990328,-8939.585234
1169.872173,172.283227,-2450.250342,-9207.581365
1169.874733,267.996131,727.418070,-9169.296203
1169.877294,-76.570323,-478.564520,-8901.300072
1169.879855,-344.566454,-19.142581,-8958.727814
1169.882416,-248.853550,-1301.695494,-9379.864592
1169.884977,382.851616,-1512.263883,-9284.151688
1169.887538,172.283227,-497.707101,-9016.155557
1169.890099,-114.855485,-765.703232,-9016.155557
1169.892660,-478.564520,-363.709035,-8939.585234
1169.895221,-1914.258080,19.142581,-9188.438784
1169.897782,-593.420005,-1856.830338,-9265.009107
1169.900343,-880.558717,-421.136778,-9131.011042
1169.902904,995.414202,-842.273555,-9054.440718
1169.905464,38.285162,-114.855485,-9169.296203
1169.908025,1569.691626,-1244.267752,-9150.153622
1169.910586,344.566454,-1588.834206,-9188.438784
1169.913147,593.420005,-401.994197,-9169.296203
1169.915708,-57.427742,-2143.969050,-9169.296203
1169.918269,-1435.693560,1244.267752,-8824.729749
1169.920830,-631.705166,-1914.258080,-9131.011042
1169.923391,-823.130974,-535.992262,-9016.155557
1169.925954,325.423874,-229.710970,-9092.725880
1169.928518,-669.990328,2029.113565,-9092.725880
1169.931081,-631.705166,727.418070,-8863.014910
1169.933644,-1320.838075,-153.140646,-8977.870395
1169.936207,-2431.107762,363.709035,-9016.155557
1169.938771,-1167.697429,669.990328,-8939.585234
1169.941334,-1703.689691,2143.969050,-8824.729749
1169.943897,-1320.838075,1225.125171,-9054.440718
1169.946460,-823.130974,1263.410333,-9035.298138
1169.949024,-784.845813,-727.418070,-9073.583299
1169.951587,-1378.265818,210.568389,-9111.868461
1169.954150,-287.138712,-248.853550,-9092.725880
1169.956713,-2277.967115,937.986459,-9016.155557
1169.959276,-1952.543242,1684.547110,-9207.581365
1169.961840,-612.562586,-76.570323,-9284.151688
1169.964403,-1244.267752,344.566454,-8748.159426
1169.966966,-1416.550979,1263.410333,-8977.870395
1169.969529,-2603.390989,1397.408398,-8824.729749
1169.972093,-2507.678085,2105.683888,-9092.725880
1169.974656,-1646.261949,708.275490,-9226.723946
1169.977219,-1607.976787,765.703232,-9016.155557
1169.979782,-823.130974,306.281293,-9054.440718
1169.982345,-1205.982590,-38.285162,-9092.725880
1169.984909,-574.277424,-57.427742,-9131.011042
1169.987472,-38.285162,1799.402595,-8920.442653
1169.990035,-421.136778,-2373.680019,-9054.440718
1169.992598,191.425808,-363.709035,-8958.727814
1169.995162,38.285162,-1588.834206,-9245.866526
1169.997725,-191.425808,593.420005,-9188.438784
1170.000288,-133.998066,-459.421939,-8901.300072
1170.002851,-650.847747,-248.853550,-8939.585234
1170.005415,-76.570323,-823.130974,-9265.009107
1170.007978,267.996131,-2086.541307,-9284.151688
1170.010541,57.427742,210.568389,-8901.300072
1170.013104,191.425808,267.996131,-8920.442653
1170.015667,287.138712,248.853550,-8843.872330
1170.018231,-1033.699363,-535.992262,-8958.727814
1170.020794,-1129.412267,-1359.123237,-9360.722011
1170.023357,38.285162,-1148.554848,-9131.011042
1170.025920,344.566454,-727.418070,-9188.438784
1170.028486,880.558717,-1148.554848,-8977.870395
1170.031051,842.273555,-880.558717,-9226.723946
1170.033616,976.271621,-1225.125171,-9188.438784
1170.036182,-38.285162,-593.420005,-9188.438784
1170.038747,-191.425808,-669.990328,-9035.298138
1170.041312,-1301.695494,-172.283227,-8939.585234
1170.043878,-918.843878,-497.707101,-9054.440718
1170.046443,-267.996131,-995.414202,-9092.725880
1170.049008,-976.271621,2928.814862,-9073.583299
1170.051574,-1244.267752,19.142581,-9111.868461
1170.054139,-861.416136,1339.980656,-8805.587168
1170.056704,-1531.406464,-440.279358,-9073.583299
1170.059270,-1875.972918,535.992262,-8977.870395
1170.061835,-1741.974853,1703.689691,-8843.872330
1170.064400,-1875.972918,2277.967115,-8863.014910
1170.066966,-937.986459,1148.554848,-9092.725880
1170.069531,-727.418070,-19.142581,-9111.868461
1170.072096,-1033.699363,-267.996131,-9092.725880
1170.074662,-1033.699363,325.423874,-8843.872330
1170.077227,-1780.260014,2354.537438,-8843.872330
1170.079792,-899.701298,593.420005,-9265.009107
1170.082358,-957.129040,-995.414202,-9169.296203
1170.084923,-937.986459,1646.261949,-9035.298138
1170.087488,-1818.545176,-133.998066,-8939.585234
1170.090054,-2947.957443,2048.256146,-8824.729749
1170.092619,-1780.260014,803.988394,-8939.585234
1170.095184,-2124.826469,650.847747,-9054.440718
1170.097749,-1627.119368,1282.552914,-9016.155557
1170.100315,-1761.117434,325.423874,-9054.440718
1170.102880,-957.129040,344.566454,-8939.585234
1170.105445,-306.281293,-1129.412267,-9111.868461
1170.108011,-382.851616,2411.965181,-8863.014910
1170.110576,-114.855485,-2545.963246,-9073.583299
1170.113141,-133.998066,727.418070,-8939.585234
1170.115707,57.427742,-2679.961312,-9284.151688
1170.118272,76.570323,478.564520,-9131.011042
1170.120837,114.855485,-421.136778,-8977.870395
1170.123403,-880.558717,153.140646,-8901.300072
1170.125968,-382.851616,-1205.982590,-9303.294269
1170.128533,382.851616,-2124.826469,-9341.579430
1170.131084,229.710970,57.427742,-8901.300072
1170.133634,-76.570323,-248.853550,-9016.155557
1170.136184,-746.560651,2373.680019,-8671.589102
1170.138734,-95.712904,-1282.552914,-8958.727814
1170.141285,-727.418070,1071.984525,-8958.727814
1170.143835,669.990328,-1091.127106,-9360.722011
1170.146385,689.132909,-1052.841944,-9303.294269
1170.148935,937.986459,229.710970,-9150.153622
1170.151486,1359.123237,-2794.816797,-9265.009107
1170.154036,76.570323,133.998066,-9092.725880
1170.156586,957.129040,-2679.961312,-9265.009107
1170.159137,-784.845813,1435.693560,-8977.870395
1170.161687,-382.851616,-918.843878,-8939.585234
1170.164237,-976.271621,114.855485,-9035.298138
1170.166787,-325.423874,-344.566454,-9054.440718
1170.169338,-593.420005,2277.967115,-9054.440718
1170.171888,-1359.123237,363.709035,-9016.155557
1170.174438,-1110.269686,861.416136,-9035.298138
1170.176988,-1684.547110,325.423874,-9016.155557
1170.179539,-1550.549045,153.140646,-8958.727814
1170.182089,-1971.685822,1818.545176,-8863.014910
1170.184639,-1703.689691,1646.261949,-9073.583299
1170.187189,-1033.699363,287.138712,-9188.438784
1170.189740,-1148.554848,-555.134843,-9245.866526
1170.192290,-478.564520,612.562586,-8882.157491
1170.194840,-1091.127106,2565.105827,-8958.727814
1170.197390,-937.986459,-287.138712,-8958.727814
1170.199941,-784.845813,995.414202,-9150.153622
1170.202491,-229.710970,-114.855485,-9035.298138
1170.205041,-1493.121302,325.423874,-8652.446522
1170.207592,-2201.396792,1282.552914,-8882.157491
1170.210142,-2641.676150,1339.980656,-9169.296203
1170.212692,-1875.972918,1110.269686,-8901.300072
1170.215242,-1914.258080,1359.123237,-8901.300072
1170.217793,-1588.834206,1244.267752,-8977.870395
1170.220343,-1205.982590,210.568389,-8977.870395
1170.222893,-325.423874,172.283227,-8997.012976
1170.225443,-172.283227,76.570323,-9188.438784
1170.227994,-1493.121302,803.988394,-8958.727814
1170.230544,0.000000,-1512.263883,-9073.583299
1170.233098,-114.855485,-1646.261949,-9016.155557
1170.235652,153.140646,-1531.406464,-9303.294269
1170.238206,-497.707101,19.142581,-9073.583299
1170.240760,-363.709035,459.421939,-8863.014910
1170.243314,-191.425808,-1761.117434,-9169.296203
1170.245868,-38.285162,-1435.693560,-9150.153622
1170.248422,593.420005,-1780.260014,-9456.434915
1170.250976,-172.283227,76.570323,-9073.583299
1170.253530,-325.423874,918.843878,-9054.440718
1170.256084,-210.568389,-19.142581,-8958.727814
1170.258638,-1263.410333,-2699.103893,-9226.723946
1170.261192,-784.845813,440.279358,-9207.581365
1170.263746,306.281293,-1780.260014,-9475.577496
1170.266300,401.994197,-784.845813,-9226.723946
1170.268854,1186.840010,-516.849682,-9207.581365
1170.271408,995.414202,-1799.402595,-9131.011042
1170.273962,267.996131,-497.707101,-9111.868461
1170.276516,-114.855485,-1052.841944,-9035.298138
1170.279070,-1320.838075,191.425808,-8977.870395
1170.281624,-535.992262,-861.416136,-9016.155557
1170.284178,-727.418070,-210.568389,-9150.153622
1170.286732,-708.275490,1780.260014,-9131.011042
1170.289286,-1110.269686,1071.984525,-9073.583299
1170.291840,-918.843878,555.134843,-8977.870395
1170.294394,-1225.125171,267.996131,-9054.440718
1170.296948,-2009.970984,95.712904,-8997.012976
1170.299502,-1684.547110,1607.976787,-8920.442653
1170.302056,-1684.547110,1971.685822,-8939.585234
1170.304610,-784.845813,669.990328,-9131.011042
1170.307165,-899.701298,-114.855485,-9054.440718
1170.309719,-1071.984525,-516.849682,-9188.438784
1170.312273,-1569.691626,708.275490,-8767.302006
1170.314827,-153.140646,3503.092286,-8958.727814
1170.317381,-861.416136,-3866.801322,-8977.870395
1170.319935,-1129.412267,3771.088418,-8690.731683
1170.322489,-401.994197,-1512.263883,-9188.438784
1170.325043,-2967.100024,746.560651,-8843.872330
1170.327597,-1225.125171,2182.254211,-9111.868461
1170.330151,-2603.390989,-133.998066,-8824.729749
1170.332705,-2354.537438,2737.389054,-9016.155557
1170.335262,-1378.265818,-133.998066,-9207.581365
1170.337820,-1186.840010,1416.550979,-8805.587168
1170.340377,191.425808,-1952.543242,-9131.011042
1170.342935,-631.705166,1971.685822,-8920.442653
1170.345493,-899.701298,-957.129040,-8958.727814
1170.348050,-287.138712,401.994197,-9035.298138
1170.350608,38.285162,-2756.531635,-9131.011042
1170.353165,555.134843,-976.271621,-9303.294269
1170.355723,-574.277424,-76.570323,-9092.725880
1170.358280,-765.703232,248.853550,-8997.012976
1170.360838,-593.420005,-842.273555,-9035.298138
1170.363395,-38.285162,-1722.832272,-9131.011042
1170.365953,612.562586,-1473.978722,-9418.149754
1170.368510,76.570323,-803.988394,-9131.011042
1170.371068,306.281293,-899.701298,-8997.012976
1170.373626,-1761.117434,861.416136,-8863.014910
1170.376183,-1110.269686,-2526.820666,-9322.436850
1170.378741,-287.138712,-2833.101958,-9360.722011
1170.381298,516.849682,-1148.554848,-9303.294269
1170.383856,937.986459,-1148.554848,-9111.868461
1170.386413,1110.269686,38.285162,-8958.727814
1170.388971,727.418070,-1397.408398,-9054.440718
1170.391528,-38.285162,-918.843878,-9092.725880
1170.394086,-823.130974,-1167.697429,-9016.155557
1170.396644,-1244.267752,-363.709035,-9150.153622
1170.399201,-172.283227,-708.275490,-9016.155557
1170.401759,-478.564520,1033.699363,-9111.868461
1170.404316,-937.986459,1607.976787,-8997.012976
1170.406874,-574.277424,153.140646,-9092.725880
1170.409431,-1454.836141,19.142581,-8977.870395
1170.411989,-1875.972918,114.855485,-9150.153622
1170.414546,-1359.123237,1014.556782,-9035.298138
1170.417104,-1837.687757,1607.976787,-8748.159426
1170.419662,-1378.265818,1627.119368,-8977.870395
1170.422219,-1091.127106,-612.562586,-9188.438784
1170.424777,-823.130974,-210.568389,-9092.725880
1170.427334,-1301.695494,-95.712904,-9169.296203
1170.429892,-899.701298,2660.818731,-8863.014910
1170.432449,-650.847747,1397.408398,-9092.725880
1170.435007,-631.705166,38.285162,-9054.440718
1170.437567,-1110.269686,631.705166,-8977.870395
1170.440127,-1914.258080,-535.992262,-8958.727814
1170.442687,-3139.383251,2431.107762,-8882.157491
1170.445248,-1933.400661,440.279358,-9054.440718
1170.447808,-2277.967115,3101.098090,-8901.300072
1170.450368,-1588.834206,38.285162,-8997.012976
1170.452928,-1761.117434,267.996131,-8997.012976
1170.455488,-440.279358,-19.142581,-9150.153622
1170.458049,172.283227,-248.853550,-9169.296203
1170.460609,-1780.260014,1607.976787,-8939.585234
1170.463169,-38.285162,-2105.683888,-9073.583299
1170.465729,-133.998066,-1091.127106,-9016.155557
1170.468289,267.996131,-2335.394858,-9341.579430
1170.470850,-421.136778,267.996131,-9111.868461
1170.473410,-401.994197,-57.427742,-8977.870395
1170.475970,-229.710970,-382.851616,-9073.583299
1170.478530,-421.136778,-1990.828403,-9188.438784
1170.481090,535.992262,-2354.537438,-9456.434915
1170.483651,497.707101,497.707101,-9016.155557
1170.486211,957.129040,1435.693560,-8939.585234
1170.488771,-1588.834206,-3675.375514,-9054.440718
1170.491331,-2584.248408,2679.961312,-8882.157491
1170.493891,784.845813,-210.568389,-9475.577496
1170.496451,-382.851616,-2450.250342,-9322.436850
1170.499012,2182.254211,555.134843,-9092.725880
1170.501572,1301.695494,-2009.970984,-9150.153622
1170.504132,-229.710970,1014.556782,-9092.725880
1170.506692,593.420005,-3388.236802,-9322.436850
1170.509252,-1071.984525,842.273555,-8901.300072
1170.511813,19.142581,-2239.681954,-9226.723946
1170.514373,-823.130974,-76.570323,-9016.155557
1170.516933,-555.134843,1186.840010,-9131.011042
1170.519493,-1014.556782,1780.260014,-8863.014910
1170.522053,-478.564520,57.427742,-8977.870395
1170.524614,-1301.695494,-153.140646,-9092.725880
1170.527174,-2124.826469,229.710970,-9131.011042
1170.529734,-957.129040,957.129040,-8958.727814
1170.532294,-2163.111630,2507.678085,-8786.444587
1170.534854,-1110.269686,1148.554848,-8977.870395
1170.537415,-1416.550979,-440.279358,-8997.012976
1170.539977,-823.130974,1110.269686,-9054.440718
1170.542540,172.283227,689.132909,-9035.298138
1170.545102,-1569.691626,727.418070,-8729.016845
1170.547665,-478.564520,1761.117434,-9265.009107
1170.550227,-1416.550979,-1550.549045,-9131.011042
1170.552790,-2086.541307,2163.111630,-8958.727814
1170.555353,-1550.549045,-631.705166,-9035.298138
1170.557915,-3311.666478,2182.254211,-8901.300072
1170.560478,-1416.550979,1799.402595,-9073.583299
1170.563040,-2584.248408,1052.841944,-8901.300072
1170.565603,-1397.408398,1703.689691,-9150.153622
1170.568166,-1531.406464,-1052.841944,-9188.438784
1170.570728,-153.140646,210.568389,-9150.153622
1170.573291,823.130974,1837.687757,-9111.868461
1170.575853,-803.988394,-1205.982590,-8920.442653
1170.578416,-172.283227,516.849682,-8958.727814
1170.580979,-497.707101,-3503.092286,-9131.011042
1170.583541,497.707101,516.849682,-9265.009107
1170.586104,-133.998066,-1244.267752,-9016.155557
1170.588666,-861.416136,459.421939,-9016.155557
1170.591229,0.000000,-1933.400661,-9207.581365
1170.593792,-229.710970,-842.273555,-9092.725880
1170.596354,612.562586,-1033.699363,-9188.438784
1170.598917,631.705166,765.703232,-8882.157491
1170.601479,-76.570323,-612.562586,-8863.014910
1170.604042,-1607.976787,-2029.113565,-8882.157491
1170.606605,-1397.408398,133.998066,-9418.149754
1170.609167,765.703232,-2622.533570,-9437.292334
1170.611730,516.849682,-172.283227,-9035.298138
1170.614292,2201.396792,-1397.408398,-9111.868461
1170.616855,363.709035,-95.712904,-9092.725880
1170.619417,421.136778,-1148.554848,-9150.153622
1170.621980,-669.990328,-995.414202,-9150.153622
1170.624543,-880.558717,-593.420005,-9035.298138
1170.627105,-574.277424,-995.414202,-9016.155557
1170.629668,-478.564520,746.560651,-9054.440718
1170.632230,-727.418070,2890.529701,-8958.727814
1170.634793,-1205.982590,631.705166,-8997.012976
1170.637356,-1665.404530,153.140646,-8977.870395
1170.639918,-1225.125171,-38.285162,-9226.723946
1170.642483,-1550.549045,574.277424,-8958.727814
1170.645048,-1531.406464,2143.969050,-8843.872330
1170.647612,-1703.689691,1550.549045,-8920.442653
1170.650177,-1071.984525,555.134843,-8939.585234
1170.652742,-593.420005,-248.853550,-9016.155557
1170.655306,-1339.980656,1493.121302,-8997.012976
1170.657871,937.986459,344.566454,-8977.870395
1170.660436,-1875.972918,2105.683888,-8671.589102
1170.663000,-478.564520,2794.816797,-9226.723946
1170.665565,-1684.547110,-2852.244539,-9035.298138
1170.668130,-2182.254211,4498.506488,-8824.729749
1170.670694,-1320.838075,-191.425808,-9073.583299
1170.673259,-3732.803256,3062.812928,-8786.444587
1170.675824,-1282.552914,1722.832272,-8997.012976
1170.678388,-2622.533570,1320.838075,-9054.440718
1170.680953,-133.998066,344.566454,-9131.011042
1170.683518,-401.994197,-1799.402595,-9111.868461
1170.686082,497.707101,1914.258080,-8920.442653
1170.688647,-95.712904,-3101.098090,-9073.583299
1170.691212,-784.845813,2622.533570,-8843.872330
1170.693776,95.712904,-4843.072942,-9092.725880
1170.696341,172.283227,1052.841944,-9226.723946
1170.698906,133.998066,-1875.972918,-9226.723946
1170.701470,-1339.980656,421.136778,-8958.727814
1170.704035,-172.283227,-727.418070,-9073.583299
1170.706600,19.142581,-1684.547110,-9265.009107
1170.709164,325.423874,-2143.969050,-9284.151688
1170.711729,-382.851616,-957.129040,-9169.296203
1170.714294,-727.418070,2009.970984,-9035.298138
1170.716858,-880.558717,-287.138712,-8824.729749
1170.719423,-459.421939,535.992262,-9245.866526
1170.721988,612.562586,-3790.230998,-9456.434915
1170.724552,401.994197,172.283227,-9054.440718
1170.727117,2086.541307,-478.564520,-9111.868461
1170.729682,363.709035,-57.427742,-8997.012976
1170.732246,727.418070,-689.132909,-9226.723946
1170.734811,-1244.267752,-1244.267752,-9054.440718
1170.737376,-631.705166,-823.130974,-8958.727814
1170.739940,-593.420005,-1569.691626,-9111.868461
1170.742505,-401.994197,995.414202,-9035.298138
1170.745071,-803.988394,1684.547110,-8901.300072
1170.747638,-1052.841944,669.990328,-8977.870395
1170.750204,-1435.693560,-421.136778,-9054.440718
1170.752770,-1761.117434,-325.423874,-9226.723946
1170.755337,-1052.841944,1263.410333,-9054.440718
1170.757903,-1741.974853,2201.396792,-8824.729749
1170.760470,-1627.119368,2871.387120,-8843.872330
1170.763036,-1263.410333,-95.712904,-9016.155557
1170.765602,-746.560651,-229.710970,-9169.296203
1170.768169,-555.134843,-38.285162,-9245.866526
1170.770735,-1091.127106,937.986459,-8939.585234
1170.773301,-1071.984525,2316.252277,-8977.870395
1170.775868,-957.129040,727.418070,-9265.009107
1170.778434,-899.701298,401.994197,-8824.729749
1170.781001,-1780.260014,574.277424,-8901.300072
1170.783567,-2947.957443,1818.545176,-8824.729749
1170.786133,-2565.105827,3273.381317,-8997.012976
1170.788700,-2277.967115,440.279358,-9073.583299
1170.791266,-1627.119368,880.558717,-9016.155557
1170.793832,-248.853550,-1665.404530,-9226.723946
1170.796399,-267.996131,-229.710970,-9207.581365
1170.798965,-478.564520,2220.539373,-8977.870395
1170.801532,382.851616,-1359.123237,-8997.012976
1170.804098,-459.421939,-2067.398726,-8882.157491
1170.806664,-19.142581,-2048.256146,-9341.579430
1170.809231,-401.994197,-421.136778,-9169.296203
1170.811797,-172.283227,-76.570323,-9073.583299
1170.814363,-363.709035,765.703232,-8977.870395
1170.816930,-459.421939,-1741.974853,-9245.866526
1170.819496,363.709035,-1225.125171,-9188.438784
1170.822062,153.140646,-1397.408398,-9111.868461
1170.824629,-1091.127106,650.847747,-8882.157491
1170.827195,-650.847747,-1129.412267,-9265.009107
1170.829762,-1588.834206,-746.560651,-9054.440718
1170.832328,803.988394,-287.138712,-9437.292334
1170.834894,287.138712,-2316.252277,-9379.864592
1170.837461,1531.406464,-287.138712,-9265.009107
1170.840027,880.558717,-1033.699363,-9303.294269
1170.842593,267.996131,57.427742,-9035.298138
1170.845160,-210.568389,-1588.834206,-9092.725880
1170.847728,-1091.127106,-746.560651,-8920.442653
1170.850296,-421.136778,-1741.974853,-9054.440718
1170.852864,-784.845813,306.281293,-9054.440718
1170.855431,-976.271621,3120.240670,-8997.012976
1170.857999,-1550.549045,574.277424,-9092.725880
1170.860567,-1378.265818,612.562586,-8882.157491
1170.863135,-1225.125171,-497.707101,-9169.296203
1170.865703,-1110.269686,899.701298,-8977.870395
1170.868271,-1435.693560,2584.248408,-8805.587168
1170.870839,-1665.404530,2086.541307,-8843.872330
1170.873407,-1435.693560,765.703232,-8901.300072
1170.875975,-899.701298,-401.994197,-9016.155557
1170.878543,-727.418070,1225.125171,-9150.153622
1170.881111,153.140646,95.712904,-9092.725880
1170.883679,-976.271621,2029.113565,-8939.585234
1170.886247,-861.416136,-57.427742,-9035.298138
1170.888814,-1799.402595,937.986459,-9169.296203
1170.891382,-1646.261949,-172.283227,-8958.727814
1170.893950,-2526.820666,1014.556782,-8977.870395
1170.896518,-2182.254211,2411.965181,-8977.870395
1170.899086,-2392.822600,1435.693560,-8824.729749
1170.901654,-1473.978722,535.992262,-8939.585234
1170.904222,-440.279358,-746.560651,-9188.438784
1170.906790,-76.570323,-1186.840010,-9303.294269
1170.909358,-957.129040,2086.541307,-9073.583299
1170.911926,440.279358,-1569.691626,-9073.583299
1170.914494,-153.140646,-95.712904,-8748.159426
1170.917062,-401.994197,-3196.810994,-9245.866526
1170.919629,-516.849682,-803.988394,-9245.866526
1170.922197,-133.998066,-210.568389,-9054.440718
1170.924765,-267.996131,803.988394,-8958.727814
1170.927333,-401.994197,-1684.547110,-9169.296203
1170.929901,172.283227,-1856.830338,-9379.864592
1170.932469,650.847747,-478.564520,-8939.585234
1170.935037,382.851616,-1301.695494,-9016.155557
1170.937605,-1818.545176,1244.267752,-8767.302006
1170.940173,-746.560651,-421.136778,-9418.149754
1170.942741,555.134843,-2756.531635,-9399.007173
1170.945309,497.707101,-803.988394,-9188.438784
1170.947877,1799.402595,-1550.549045,-9207.581365
1170.950445,612.562586,459.421939,-9092.725880
1170.953014,918.843878,-1244.267752,-9226.723946
1170.955584,-803.988394,-612.562586,-8939.585234
1170.958153,-669.990328,-1225.125171,-9054.440718
1170.960722,-612.562586,-1607.976787,-9054.440718
1170.963292,-727.418070,1588.834206,-9054.440718
1170.965861,-516.849682,2584.248408,-8901.300072
1170.968430,-1416.550979,631.705166,-8824.729749
1170.971000,-1435.693560,-38.285162,-9016.155557
1170.973569,-1722.832272,-574.277424,-9169.296203
1170.976139,-459.421939,650.847747,-9111.868461
1170.978708,-1531.406464,2277.967115,-8709.874264
1170.981277,-1665.404530,2469.392923,-8863.014910
1170.983847,-1416.550979,-631.705166,-9131.011042
1170.986416,-899.701298,-229.710970,-9169.296203
1170.988985,95.712904,-823.130974,-9360.722011
1170.991555,-1359.123237,516.849682,-9092.725880
1170.994124,-1033.699363,612.562586,-9111.868461
1170.996693,-1818.545176,631.705166,-8939.585234
1170.999263,-1837.687757,19.142581,-9035.298138
1171.001832,-2297.109696,-38.285162,-8901.300072
1171.004401,-2143.969050,2277.967115,-8824.729749
1171.006971,-2297.109696,2124.826469,-8997.012976
1171.009540,-2239.681954,2411.965181,-8920.442653
1171.012109,-1493.121302,-1014.556782,-9150.153622
1171.014679,-153.140646,-1320.838075,-9226.723946
1171.017248,803.988394,2220.539373,-9111.868461
1171.019817,19.142581,-1282.552914,-9073.583299
1171.022387,-593.420005,1397.408398,-8843.872330
1171.024956,-248.853550,-4096.512291,-9016.155557
1171.027525,287.138712,153.140646,-9131.011042
1171.030095,-210.568389,-1741.974853,-9265.009107
1171.032664,-1014.556782,1014.556782,-8997.012976
1171.035233,-95.712904,-1320.838075,-9150.153622
1171.037803,19.142581,-1263.410333,-9265.009107
1171.040372,708.275490,-995.414202,-8997.012976
1171.042941,1071.984525,440.279358,-9131.011042
1171.045511,-1301.695494,-3349.951640,-9054.440718
1171.048080,-2699.103893,1741.974853,-8920.442653
1171.050649,172.283227,-2048.256146,-9418.149754
1171.053220,114.855485,-1799.402595,-9131.011042
1171.055790,2469.392923,-38.285162,-9054.440718
1171.058360,1703.689691,-1818.545176,-9111.868461
1171.060930,114.855485,995.414202,-9092.725880
1171.063501,-287.138712,-1837.687757,-9188.438784
1171.066071,-1244.267752,-1014.556782,-8882.157491
1171.068641,-363.709035,-2277.967115,-9092.725880
1171.071212,-1244.267752,535.992262,-9092.725880
1171.073782,-248.853550,3598.805190,-8997.012976
1171.076352,-1799.402595,-133.998066,-8824.729749
1171.078922,-1378.265818,995.414202,-8882.157491
1171.081493,-1205.982590,-612.562586,-9131.011042
1171.084063,-1339.980656,497.707101,-9207.581365
1171.086633,-1129.412267,2029.113565,-8920.442653
1171.089203,-1722.832272,3177.668413,-8767.302006
1171.091774,-1435.693560,-191.425808,-9016.155557
1171.094344,-1703.689691,-1301.695494,-9226.723946
1171.096914,-880.558717,1588.834206,-9150.153622
1171.099484,440.279358,746.560651,-9111.868461
1171.102055,-1378.265818,2584.248408,-8748.159426
1171.104625,-669.990328,1378.265818,-8882.157491
1171.107195,-1990.828403,516.849682,-8863.014910
1171.109765,-1952.543242,1167.697429,-8939.585234
1171.112336,-2373.680019,1110.269686,-9035.298138
1171.114906,-2335.394858,3177.668413,-8786.444587
1171.117476,-1799.402595,689.132909,-8958.727814
1171.120046,-1512.263883,1129.412267,-8901.300072
1171.122617,114.855485,-2124.826469,-9303.294269
1171.125187,727.418070,2545.963246,-9111.868461
1171.127757,-229.710970,-2220.539373,-9150.153622
1171.130327,-248.853550,1703.689691,-8958.727814
1171.132898,-574.277424,-3771.088418,-9092.725880
1171.135468,-57.427742,306.281293,-9150.153622
1171.138038,19.142581,-1493.121302,-9169.296203
1171.140608,-344.566454,784.845813,-9035.298138
1171.143179,-708.275490,-1129.412267,-9207.581365
1171.145749,-38.285162,-708.275490,-8977.870395
1171.148319,229.710970,-2794.816797,-9265.009107
1171.150889,-593.420005,-918.843878,-8901.300072
1171.153460,-1684.547110,1359.123237,-8863.014910
1171.156030,-306.281293,-727.418070,-9073.583299
1171.158601,0.000000,-1282.552914,-9111.868461
1171.161172,803.988394,-1780.260014,-9131.011042
1171.163743,842.273555,-1186.840010,-9245.866526
1171.166314,823.130974,-267.996131,-9169.296203
1171.168885,1129.412267,-1186.840010,-9188.438784
1171.171456,-478.564520,-133.998066,-8977.870395
1171.174027,-516.849682,-1856.830338,-8977.870395
1171.176598,-1129.412267,-1129.412267,-9111.868461
1171.179169,-708.275490,861.416136,-9265.009107
1171.181739,-803.988394,3464.807125,-8901.300072
1171.184310,-1129.412267,210.568389,-8901.300072
1171.186881,-2029.113565,210.568389,-8997.012976
1171.189452,-1627.119368,-631.705166,-9284.151688
1171.192023,-555.134843,1225.125171,-9035.298138
1171.194594,-1205.982590,2163.111630,-8805.587168
1171.197165,-1301.695494,2163.111630,-8920.442653
1171.199736,-1665.404530,459.421939,-8920.442653
1171.202307,-1225.125171,650.847747,-8901.300072
1171.204878,95.712904,363.709035,-9265.009107
1171.207448,-191.425808,1895.115499,-8709.874264
1171.210019,248.853550,2105.683888,-8843.872330
1171.212590,-1148.554848,-191.425808,-8958.727814
1171.215161,-2545.963246,2163.111630,-8843.872330
1171.217732,-2029.113565,-842.273555,-9073.583299
1171.220303,-2718.246474,3694.518094,-8997.012976
1171.222874,-1531.406464,995.414202,-8958.727814
1171.225445,-2182.254211,2335.394858,-8786.444587
1171.228016,-727.418070,-1263.410333,-9150.153622
1171.230586,38.285162,-880.558717,-9418.149754
1171.233157,-1071.984525,937.986459,-9188.438784
1171.235728,880.558717,-1052.841944,-9111.868461
1171.238299,-210.568389,-803.988394,-8843.872330
1171.240870,-325.423874,-2411.965181,-9188.438784
1171.243441,-784.845813,153.140646,-9073.583299
1171.246012,-95.712904,-1722.832272,-9111.868461
1171.248583,0.000000,1378.265818,-9054.440718
1171.251154,19.142581,-1205.982590,-9016.155557
1171.253725,-114.855485,-1301.695494,-9169.296203
1171.256295,555.134843,-2507.678085,-9073.583299
1171.258866,-1531.406464,918.843878,-8939.585234
1171.261437,-976.271621,669.990328,-8863.014910
1171.264008,-325.423874,-267.996131,-9207.581365
1171.266579,612.562586,-1952.543242,-9073.583299
1171.269150,1129.412267,-1703.689691,-9111.868461
1171.271721,1397.408398,-1205.982590,-9150.153622
1171.274292,708.275490,325.423874,-9245.866526
1171.276863,229.710970,-306.281293,-9131.011042
1171.279434,-1186.840010,-1473.978722,-8939.585234
1171.282006,-823.130974,-2143.969050,-8997.012976
1171.284577,-937.986459,-76.570323,-9131.011042
1171.287149,-535.992262,3790.230998,-8920.442653
1171.289720,-1741.974853,-976.271621,-8824.729749
1171.292292,-1493.121302,2009.970984,-8977.870395
1171.294863,-1263.410333,-1493.121302,-9188.438784
1171.297435,-1378.265818,899.701298,-9226.723946
1171.300006,-1052.841944,1780.260014,-9035.298138
1171.302578,-1588.834206,3330.809059,-8767.302006
1171.305149,-1569.691626,918.843878,-8863.014910
1171.307721,-1837.687757,-1186.840010,-9226.723946
1171.310293,-1359.123237,306.281293,-9207.581365
1171.312864,478.564520,995.414202,-9284.151688
1171.315436,-1378.265818,497.707101,-8824.729749
1171.318007,-1435.693560,2794.816797,-8863.014910
1171.320579,-2105.683888,401.994197,-8939.585234
1171.323150,-2220.539373,1320.838075,-8997.012976
1171.325722,-2009.970984,555.134843,-9073.583299
1171.328293,-2450.250342,2201.396792,-8901.300072
1171.330865,-1148.554848,1378.265818,-8882.157491
1171.333436,-1263.410333,-440.279358,-8920.442653
1171.336008,-38.285162,-1627.119368,-9418.149754
1171.338579,-631.705166,1588.834206,-9150.153622
1171.341151,1167.697429,-2392.822600,-9169.296203
1171.343723,191.425808,574.277424,-8843.872330
1171.346295,-535.992262,-823.130974,-9150.153622
1171.348868,-382.851616,-363.709035,-9073.583299
1171.351440,-440.279358,-765.703232,-9111.868461
1171.354012,153.140646,382.851616,-9111.868461
1171.356584,-344.566454,-1856.830338,-9303.294269
1171.359156,421.136778,-784.845813,-9111.868461
1171.361728,-229.710970,-440.279358,-9092.725880
1171.364300,516.849682,-172.283227,-8863.014910
1171.366872,497.707101,-287.138712,-8977.870395
1171.369444,-918.843878,-1129.412267,-9303.294269
1171.372016,516.849682,-1646.261949,-9360.722011
1171.374588,114.855485,-1244.267752,-9226.723946
1171.377160,1454.836141,-574.277424,-9035.298138
1171.379732,1301.695494,-1761.117434,-9207.581365
1171.382304,-191.425808,1033.699363,-9035.298138
1171.384876,-382.851616,-2354.537438,-9092.725880
1171.387448,-1416.550979,-823.130974,-8977.870395
1171.390020,-574.277424,19.142581,-9169.296203
1171.392592,-1052.841944,3905.086483,-8882.157491
1171.395164,-1129.412267,325.423874,-8863.014910
1171.397736,-2182.254211,669.990328,-8901.300072
1171.400308,-1493.121302,-287.138712,-9245.866526
1171.402880,-516.849682,516.849682,-9131.011042
1171.405452,-1416.550979,2469.392923,-8843.872330
1171.408024,-1282.552914,1856.830338,-8939.585234
1171.410596,-1646.261949,861.416136,-8767.302006
1171.413168,-1435.693560,-76.570323,-8958.727814
1171.415740,-440.279358,1014.556782,-9111.868461
1171.418312,-689.132909,880.558717,-9073.583299
1171.420884,-287.138712,3196.810994,-8997.012976
1171.423456,-1531.406464,497.707101,-8863.014910
1171.426028,-2258.824534,1588.834206,-8671.589102
1171.428600,-1933.400661,-95.712904,-8997.012976
1171.431172,-2833.101958,2526.820666,-9054.440718
1171.433744,-1780.260014,1895.115499,-9016.155557
1171.436316,-1722.832272,1225.125171,-8843.872330
1171.438888,-19.142581,-1263.410333,-9035.298138
1171.441460,248.853550,401.994197,-9341.579430
1171.444032,-306.281293,-2143.969050,-9188.438784
1171.446605,114.855485,1110.269686,-9092.725880
1171.449177,-267.996131,-3177.668413,-9150.153622
1171.451749,191.425808,210.568389,-9111.868461
1171.454322,-861.416136,-1359.123237,-8977.870395
1171.456894,-842.273555,-267.996131,-9054.440718
1171.459467,0.000000,-765.703232,-9226.723946
1171.462039,-248.853550,-1033.699363,-9265.009107
1171.464611,-229.710970,-2009.970984,-9188.438784
1171.467184,593.420005,95.712904,-8786.444587
1171.469756,-861.416136,459.421939,-8863.014910
1171.472328,-133.998066,-612.562586,-9054.440718
1171.474901,-478.564520,-1971.685822,-9418.149754
1171.477473,612.562586,-2124.826469,-9341.579430
1171.480046,1014.556782,-1550.549045,-9054.440718
1171.482618,1014.556782,-153.140646,-9169.296203
1171.485190,918.843878,-612.562586,-9188.438784
1171.487763,-765.703232,-689.132909,-8997.012976
1171.490335,-899.701298,-2182.254211,-9054.440718
1171.492907,-746.560651,-669.990328,-9054.440718
1171.495480,-1071.984525,2909.672282,-9092.725880
1171.498052,-2239.681954,2239.681954,-8977.870395
1171.500624,-1301.695494,918.843878,-8863.014910
1171.503197,-1512.263883,-325.423874,-9245.866526
1171.505769,-1052.841944,-421.136778,-9226.723946
1171.508342,-995.414202,2124.826469,-8958.727814
1171.510914,-1416.550979,2335.394858,-8843.872330
1171.513486,-1569.691626,2067.398726,-8748.159426
1171.516059,-1665.404530,-1320.838075,-9054.440718
1171.518631,-1646.261949,823.130974,-9016.155557
1171.521203,-172.283227,1014.556782,-9360.722011
1171.523776,-1033.699363,172.283227,-8939.585234
1171.526348,-1531.406464,3445.664544,-8805.587168
1171.528921,-2048.256146,-325.423874,-8958.727814
1171.531493,-2737.389054,2277.967115,-8805.587168
1171.534065,-1895.115499,-344.566454,-9169.296203
1171.536638,-2756.531635,3043.670347,-8997.012976
1171.539210,-1167.697429,38.285162,-9188.438784
1171.541782,-784.845813,-995.414202,-8958.727814
1171.544355,555.134843,1052.841944,-9245.866526
1171.546910,-1320.838075,-2794.816797,-9265.009107
1171.549466,650.847747,823.130974,-9169.296203
1171.552021,95.712904,-3522.234867,-9111.868461
1171.554577,-133.998066,516.849682,-9054.440718
1171.557133,-631.705166,-459.421939,-8997.012976
1171.559688,-1110.269686,382.851616,-9150.153622
1171.562244,57.427742,-1741.974853,-9284.151688
1171.564799,-114.855485,-1933.400661,-9399.007173
1171.567355,555.134843,-765.703232,-9054.440718
1171.569910,-287.138712,-1665.404530,-9150.153622
1171.572466,-2258.824534,803.988394,-8882.157491
1171.575021,133.998066,-516.849682,-9131.011042
1171.577577,-95.712904,-1971.685822,-9322.436850
1171.580133,976.271621,-267.996131,-9188.438784
1171.582688,1569.691626,-1971.685822,-9016.155557
1171.585244,401.994197,57.427742,-8939.585234
1171.587799,612.562586,-765.703232,-9226.723946
1171.590355,-574.277424,-861.416136,-8901.300072
1171.592910,-287.138712,-1416.550979,-9073.583299
1171.595466,-899.701298,-727.418070,-9035.298138
1171.598021,-1339.980656,5072.783912,-8939.585234
1171.600577,-2411.965181,-593.420005,-8920.442653
1171.603133,-1569.691626,2488.535504,-8786.444587
1171.605688,-1205.982590,-1282.552914,-9303.294269
1171.608244,-1205.982590,803.988394,-9111.868461
1171.610799,-823.130974,1148.554848,-8977.870395
1171.613355,-1569.691626,2622.533570,-8786.444587
1171.615910,-1397.408398,1569.691626,-9054.440718
1171.618466,-1607.976787,-574.277424,-8997.012976
1171.621022,-899.701298,1244.267752,-9150.153622
1171.623577,-19.142581,976.271621,-9016.155557
1171.626133,-172.283227,2469.392923,-8997.012976
1171.628688,-1052.841944,1014.556782,-8824.729749
1171.631244,-2622.533570,1665.404530,-8997.012976
1171.633799,-2526.820666,-401.994197,-9073.583299
1171.636355,-2871.387120,1646.261949,-9092.725880
1171.638910,-1895.115499,2086.541307,-9054.440718
1171.641466,-1646.261949,1205.982590,-8958.727814
1171.644022,95.712904,-957.129040,-9035.298138
1171.646577,631.705166,1646.261949,-9111.868461
1171.649135,-172.283227,-2584.248408,-9188.438784
1171.651693,248.853550,1091.127106,-9169.296203
1171.654250,-114.855485,-3407.379382,-9073.583299
1171.656808,19.142581,440.279358,-9016.155557
1171.659366,-306.281293,-1148.554848,-8939.585234
1171.661924,-899.701298,287.138712,-9073.583299
1171.664482,-363.709035,-1378.265818,-9437.292334
1171.667039,153.140646,-2316.252277,-9399.007173
1171.669597,440.279358,-2316.252277,-9207.581365
1171.672155,-1627.119368,708.275490,-8824.729749
1171.674713,-2124.826469,3885.943902,-8805.587168
1171.677271,401.994197,-4326.223261,-9475.577496
1171.679828,593.420005,76.570323,-9035.298138
1171.682386,1627.119368,-2201.396792,-9533.005238
1171.684944,-631.705166,1014.556782,-8997.012976
1171.687502,1550.549045,-1550.549045,-9150.153622
1171.690060,-153.140646,-382.851616,-8997.012976
1171.692618,344.566454,-1397.408398,-9073.583299
1171.695175,-325.423874,-2373.680019,-9054.440718
1171.697733,-1971.685822,2871.387120,-9150.153622
1171.700291,-1473.978722,1952.543242,-8958.727814
1171.702849,-1225.125171,535.992262,-8786.444587
1171.705407,-1627.119368,382.851616,-8977.870395
1171.707964,-1780.260014,-535.992262,-9322.436850
1171.710522,-708.275490,382.851616,-9111.868461
1171.713080,-823.130974,2488.535504,-8824.729749
1171.715638,-1512.263883,1397.408398,-8977.870395
1171.718196,-1875.972918,-76.570323,-9016.155557
1171.720753,-1818.545176,1071.984525,-9131.011042
1171.723311,191.425808,-976.271621,-9284.151688
1171.725869,-133.998066,1933.400661,-8824.729749
1171.728427,-497.707101,2105.683888,-8805.587168
1171.730985,-2469.392923,1818.545176,-8729.016845
1171.733542,-2737.389054,1473.978722,-9073.583299
1171.736100,-2679.961312,-114.855485,-9035.298138
1171.738658,-2277.967115,2871.387120,-9035.298138
1171.741216,-1473.978722,306.281293,-9054.440718
1171.743774,-727.418070,1416.550979,-8901.300072
1171.746331,267.996131,-1033.699363,-9188.438784
1171.748889,-976.271621,1512.263883,-9054.440718
1171.751449,497.707101,-1512.263883,-9284.151688
1171.754009,382.851616,-2143.969050,-9035.298138
1171.756569,38.285162,-114.855485,-9054.440718
1171.759129,-861.416136,-38.285162,-8977.870395
1171.761689,-1033.699363,-344.566454,-9016.155557
1171.764248,153.140646,-918.843878,-9284.151688
1171.766808,-344.566454,-1780.260014,-9418.149754
1171.769368,1129.412267,-1148.554848,-9092.725880
1171.771928,746.560651,-746.560651,-8997.012976
1171.774488,-1512.263883,-1186.840010,-8690.731683
1171.777048,-937.986459,803.988394,-9226.723946
1171.779608,382.851616,-2526.820666,-9379.864592
1171.782168,784.845813,-421.136778,-9303.294269
1171.784728,1607.976787,-2258.824534,-9150.153622
1171.787287,708.275490,382.851616,-9054.440718
1171.789847,459.421939,-325.423874,-9016.155557
1171.792407,-344.566454,-2718.246474,-9054.440718
1171.794967,-650.847747,-1359.123237,-8920.442653
1171.797527,-899.701298,-459.421939,-9150.153622
1171.800087,-1550.549045,5187.639397,-8882.157491
1171.802647,-2048.256146,-708.275490,-8843.872330
1171.805207,-1780.260014,2182.254211,-8882.157491
1171.807767,-1052.841944,-995.414202,-9245.866526
1171.810326,-823.130974,803.988394,-9150.153622
1171.812886,-1071.984525,1914.258080,-8729.016845
1171.815446,-1454.836141,2048.256146,-8786.444587
1171.818006,-1818.545176,1167.697429,-8958.727814
1171.820566,-727.418070,-1320.838075,-9035.298138
1171.823126,-1646.261949,-689.132909,-9169.296203
1171.825686,-1148.554848,172.283227,-9322.436850
1171.828246,-861.416136,2220.539373,-9035.298138
1171.830806,-2220.539373,1071.984525,-8824.729749
1171.833366,-2258.824534,669.990328,-8863.014910
1171.835925,-2679.961312,401.994197,-8863.014910
1171.838485,-2660.818731,1703.689691,-9092.725880
1171.841045,-1684.547110,1167.697429,-9054.440718
1171.843605,-899.701298,76.570323,-8939.585234
1171.846165,0.000000,-401.994197,-9303.294269
1171.848725,-1244.267752,-2833.101958,-9188.438784
1171.851285,650.847747,-19.142581,-9207.581365
1171.853847,497.707101,-3254.238736,-9092.725880
1171.856408,38.285162,-421.136778,-9054.440718
1171.858970,-535.992262,344.566454,-8958.727814
1171.861532,-1301.695494,-421.136778,-9035.298138
1171.864094,38.285162,-918.843878,-9284.151688
1171.866656,-172.283227,-1627.119368,-9188.438784
1171.869218,1225.125171,-995.414202,-9150.153622
1171.871779,-937.986459,-1033.699363,-8939.585234
1171.874341,-1091.127106,1914.258080,-8786.444587
1171.876903,95.712904,-4709.074877,-9379.864592
1171.879465,-114.855485,248.853550,-9169.296203
1171.882027,1052.841944,-3330.809059,-9494.720077
1171.884589,-401.994197,95.712904,-9188.438784
1171.887151,2009.970984,-2373.680019,-9150.153622
1171.889712,-459.421939,-1091.127106,-8939.585234
1171.892274,306.281293,-880.558717,-9035.298138
1171.894836,-803.988394,-2201.396792,-9150.153622
1171.897398,-1282.552914,2316.252277,-9150.153622
1171.899960,-1684.547110,1818.545176,-8997.012976
1171.902522,-1665.404530,2009.970984,-8671.589102
1171.905083,-1493.121302,57.427742,-8901.300072
1171.907645,-1761.117434,-114.855485,-9341.579430
1171.910207,-459.421939,172.283227,-9092.725880
1171.912769,-976.271621,2603.390989,-8748.159426
1171.915331,-1071.984525,1550.549045,-8901.300072
1171.917893,-1780.260014,-114.855485,-9092.725880
1171.920454,-2258.824534,-19.142581,-8997.012976
1171.923016,363.709035,-191.425808,-9265.009107
1171.925578,-669.990328,133.998066,-8958.727814
1171.928140,-1282.552914,3273.381317,-8652.446522
1171.930702,-1741.974853,1052.841944,-8805.587168
1171.933264,-2833.101958,2201.396792,-8805.587168
1171.935826,-2450.250342,-880.558717,-9131.011042
1171.938387,-2947.957443,1990.828403,-9035.298138
1171.940949,-1339.980656,478.564520,-9150.153622
1171.943511,-535.992262,535.992262,-8997.012976
1171.946073,363.709035,1646.261949,-8882.157491
1171.948635,650.847747,-3790.230998,-9092.725880
1171.951197,478.564520,76.570323,-9092.725880
1171.953758,287.138712,-2813.959378,-9284.151688
1171.956322,-287.138712,248.853550,-8958.727814
1171.958885,-593.420005,363.709035,-8843.872330
1171.961448,-803.988394,19.142581,-9111.868461
1171.964012,-325.423874,-1167.697429,-9207.581365
1171.966575,746.560651,-1397.408398,-9188.438784
1171.969138,631.705166,-1875.972918,-9341.579430
1171.971701,-1205.982590,1282.552914,-8863.014910
1171.974264,-57.427742,363.709035,-8786.444587
1171.976828,-555.134843,-2277.967115,-9226.723946
1171.979391,459.421939,-1416.550979,-9533.005238
1171.981954,957.129040,-2335.394858,-9379.864592
1171.984517,612.562586,612.562586,-9035.298138
1171.987081,401.994197,-593.420005,-9131.011042
1171.989644,-440.279358,-1244.267752,-8977.870395
1171.992207,-382.851616,-2603.390989,-9169.296203
1171.994770,-1148.554848,-440.279358,-9169.296203
1171.997333,-957.129040,3694.518094,-9035.298138
1171.999897,-2411.965181,1531.406464,-8805.587168
1172.002460,-2009.970984,1818.545176,-8748.159426
1172.005023,-1627.119368,-669.990328,-9245.866526
1172.007586,-918.843878,-95.712904,-9284.151688
1172.010150,-574.277424,1493.121302,-8977.870395
1172.012713,-1014.556782,2507.678085,-8824.729749
1172.015276,-1397.408398,2105.683888,-8843.872330
1172.017839,-861.416136,114.855485,-8958.727814
1172.020402,-1684.547110,-1818.545176,-9188.438784
1172.022966,-1282.552914,669.990328,-9131.011042
1172.025529,-1014.556782,3158.525832,-9035.298138
1172.028092,-2143.969050,1339.980656,-8843.872330
1172.030655,-1990.828403,1914.258080,-8690.731683
1172.033219,-2565.105827,-114.855485,-9035.298138
1172.035782,-3043.670347,1761.117434,-9092.725880
1172.038345,-1339.980656,976.271621,-9169.296203
1172.040908,-899.701298,382.851616,-8939.585234
1172.043471,784.845813,2507.678085,-8958.727814
1172.046035,-19.142581,-3809.373579,-9111.868461
1172.048598,593.420005,459.421939,-9226.723946
1172.051161,382.851616,-3771.088418,-9379.864592
1172.053724,-229.710970,-497.707101,-9131.011042
1172.056288,-19.142581,401.994197,-8729.016845
1172.058852,-1397.408398,267.996131,-8997.012976
1172.061417,-401.994197,-1473.978722,-9360.722011
1172.063981,0.000000,-2526.820666,-9169.296203
1172.066546,-229.710970,191.425808,-9150.153622
1172.069110,1148.554848,76.570323,-8843.872330
1172.071675,-1167.697429,1473.978722,-8575.876198
1172.074239,440.279358,-2105.683888,-9035.298138
1172.076804,-229.710970,-861.416136,-9379.864592
1172.079368,1473.978722,-1646.261949,-9322.436850
1172.081933,880.558717,-1339.980656,-9111.868461
1172.084497,133.998066,957.129040,-8920.442653
1172.087062,172.283227,-2488.535504,-9131.011042
1172.089626,-689.132909,-803.988394,-8977.870395
1172.092191,-287.138712,-1761.117434,-9188.438784
1172.094755,-1416.550979,4996.213589,-8977.870395
1172.097320,-2450.250342,-95.712904,-8767.302006
1172.099884,-2067.398726,1627.119368,-8824.729749
1172.102449,-1550.549045,-555.134843,-9226.723946
1172.105013,-1071.984525,535.992262,-9226.723946
1172.107578,-382.851616,1282.552914,-8939.585234
1172.110142,-1129.412267,2182.254211,-8843.872330
1172.112707,-1684.547110,1741.974853,-9016.155557
1172.115271,-1933.400661,-2718.246474,-9054.440718
1172.117836,-1818.545176,5264.209720,-8863.014910
1172.120400,344.566454,1244.267752,-9513.862658
1172.122965,-1339.980656,-1225.125171,-8901.300072
1172.125529,-1244.267752,3177.668413,-8805.587168
1172.128094,-3445.664544,516.849682,-8939.585234
1172.130658,-3235.096155,1665.404530,-9035.298138
1172.133223,-1856.830338,-727.418070,-9169.296203
1172.135787,-1741.974853,3062.812928,-8901.300072
1172.138352,-210.568389,-1282.552914,-9073.583299
1172.140916,-248.853550,3311.666478,-8863.014910
1172.143481,689.132909,-4785.645200,-9226.723946
1172.146045,1205.982590,1320.838075,-8920.442653
1172.148610,612.562586,-3120.240670,-9379.864592
1172.151174,-459.421939,-459.421939,-9073.583299
1172.153739,-746.560651,19.142581,-8748.159426
1172.156303,-861.416136,229.710970,-9035.298138
1172.158868,-650.847747,-363.709035,-9265.009107
1172.161433,516.849682,-2431.107762,-9207.581365
1172.163999,1129.412267,-803.988394,-9073.583299
1172.166565,-382.851616,535.992262,-8882.157491
1172.169131,-382.851616,899.701298,-8652.446522
1172.171696,-344.566454,-2584.248408,-9207.581365
1172.174262,248.853550,-1971.685822,-9628.718142
1172.176828,1435.693560,-2565.105827,-9341.579430
1172.179394,823.130974,765.703232,-8920.442653
1172.181959,382.851616,-172.283227,-9016.155557
1172.184525,-325.423874,-842.273555,-8920.442653
1172.187091,57.427742,-3043.670347,-9035.298138
1172.189657,-1837.687757,803.988394,-9245.866526
1172.192222,-1416.550979,3349.951640,-9016.155557
1172.194788,-1895.115499,1416.550979,-8709.874264
1172.197354,-1761.117434,1550.549045,-8805.587168
1172.199920,-1359.123237,-1186.840010,-9245.866526
1172.202485,-784.845813,555.134843,-9169.296203
1172.205051,-478.564520,1282.552914,-8958.727814
1172.207617,-1110.269686,2029.113565,-8997.012976
1172.210182,-1186.840010,363.709035,-8920.442653
1172.212748,-2833.101958,-210.568389,-8977.870395
1172.215314,-172.283227,114.855485,-9418.149754
1172.217880,-287.138712,-708.275490,-9379.864592
1172.220445,-1818.545176,2622.533570,-8633.303941
1172.223011,-2086.541307,1588.834206,-8843.872330
1172.225577,-3273.381317,1990.828403,-8882.157491
1172.228143,-2048.256146,-267.996131,-9073.583299
1172.230708,-2124.826469,631.705166,-9150.153622
1172.233274,-880.558717,497.707101,-9092.725880
1172.235840,-899.701298,478.564520,-9150.153622
1172.238406,-976.271621,803.988394,-9035.298138
1172.240971,1071.984525,-4421.936165,-9188.438784
1172.243537,1569.691626,76.570323,-8977.870395
1172.246103,478.564520,-3081.955509,-9360.722011
1172.248669,-1014.556782,1071.984525,-8997.012976
1172.251234,-937.986459,-210.568389,-8863.014910
1172.253800,-842.273555,172.283227,-9131.011042
1172.256366,-382.851616,-2890.529701,-9360.722011
1172.258932,57.427742,-2450.250342,-9284.151688
1172.261497,440.279358,1359.123237,-9131.011042
1172.264064,325.423874,-76.570323,-8824.729749
1172.266630,-1129.412267,-325.423874,-8786.444587
1172.269196,325.423874,-2163.111630,-9399.007173
1172.271763,497.707101,-2354.537438,-9475.577496
1172.274329,1761.117434,-1473.978722,-9169.296203
1172.276896,708.275490,-746.560651,-8939.585234
1172.279462,-478.564520,-612.562586,-8920.442653
1172.282028,-248.853550,-2163.111630,-9054.440718
1172.284595,-995.414202,-746.560651,-9054.440718
1172.287161,-1033.699363,3598.805190,-9035.298138
1172.289728,-2565.105827,861.416136,-8748.159426
1172.292294,-1856.830338,2641.676150,-8729.016845
1172.294860,-1569.691626,-803.988394,-9150.153622
1172.297427,-1454.836141,574.277424,-9207.581365
1172.299993,-95.712904,1091.127106,-9073.583299
1172.302560,-1071.984525,1780.260014,-9035.298138
1172.305126,-823.130974,2431.107762,-8767.302006
1172.307692,-1110.269686,574.277424,-9035.298138
1172.310259,-1914.258080,-57.427742,-9150.153622
1172.312825,-133.998066,612.562586,-9418.149754
1172.315392,-1473.978722,1512.263883,-8824.729749
1172.317958,-2297.109696,2297.109696,-8882.157491
1172.320524,-2679.961312,1167.697429,-8824.729749
1172.323091,-2507.678085,1588.834206,-8901.300072
1172.325657,-1971.685822,-133.998066,-9150.153622
1172.328224,-1397.408398,1799.402595,-9054.440718
1172.330790,-401.994197,-1454.836141,-9322.436850
1172.333356,-1167.697429,823.130974,-8958.727814
1172.335923,1167.697429,-2947.957443,-9169.296203
1172.338489,861.416136,-1378.265818,-9092.725880
1172.341056,344.566454,-2163.111630,-9265.009107
1172.343622,95.712904,-76.570323,-8997.012976
1172.346188,-1091.127106,823.130974,-8786.444587
1172.348755,-574.277424,-746.560651,-9207.581365
1172.351321,-1110.269686,-1205.982590,-9418.149754
1172.353888,1339.980656,-612.562586,-9111.868461
1172.356454,-38.285162,-3215.953574,-9188.438784
1172.359020,-1454.836141,2890.529701,-8805.587168
1172.361587,459.421939,-2316.252277,-9035.298138
1172.364153,-325.423874,-746.560651,-8977.870395
1172.366720,2009.970984,-2584.248408,-9724.431046
1172.369287,76.570323,-995.414202,-9207.581365
1172.371855,-401.994197,1282.552914,-8901.300072
1172.374422,95.712904,-2660.818731,-9111.868461
1172.376989,-401.994197,-153.140646,-8901.300072
1172.379556,-133.998066,-2048.256146,-9150.153622
1172.382123,-2105.683888,5130.211654,-9035.298138
1172.384690,-2182.254211,-306.281293,-8863.014910
1172.387257,-2373.680019,3311.666478,-8805.587168
1172.389824,-1263.410333,-1071.984525,-9150.153622
1172.392391,-1110.269686,669.990328,-9054.440718
1172.394959,-593.420005,1454.836141,-8901.300072
1172.397526,-535.992262,823.130974,-9188.438784
1172.400093,-995.414202,1990.828403,-8939.585234
1172.402660,-2124.826469,-1205.982590,-9054.440718
1172.405227,-1856.830338,153.140646,-9169.296203
1172.407794,-899.701298,38.285162,-9341.579430
1172.410361,-1799.402595,2297.109696,-9035.298138
1172.412928,-2143.969050,1914.258080,-8729.016845
1172.415495,-2660.818731,1186.840010,-8958.727814
1172.418063,-2813.959378,727.418070,-8977.870395
1172.420630,-1952.543242,344.566454,-9150.153622
1172.423197,-1148.554848,631.705166,-9092.725880
1172.425764,57.427742,1091.127106,-9303.294269
1172.428331,-765.703232,459.421939,-8977.870395
1172.430898,631.705166,-650.847747,-9111.868461
1172.433465,995.414202,-3541.377448,-9265.009107
1172.436032,-95.712904,-1627.119368,-9322.436850
1172.438599,95.712904,76.570323,-8958.727814
1172.441167,-1339.980656,1033.699363,-8824.729749
1172.443734,-421.136778,-574.277424,-9169.296203
1172.446301,-995.414202,-1684.547110,-9265.009107
1172.448868,1110.269686,-3024.527766,-9456.434915
1172.451435,-325.423874,95.712904,-9092.725880
1172.454002,-401.994197,1033.699363,-8748.159426
1172.456569,-267.996131,-1741.974853,-8958.727814
1172.459136,229.710970,-1627.119368,-9399.007173
1172.461703,957.129040,-3330.809059,-9552.147819
1172.464271,1359.123237,-76.570323,-9073.583299
1172.466838,421.136778,-976.271621,-9150.153622
1172.469388,-306.281293,-229.710970,-8843.872330
1172.471939,191.425808,-2431.107762,-9054.440718
1172.474490,-1971.685822,1741.974853,-9188.438784
1172.477040,-1875.972918,1818.545176,-9073.583299
1172.479591,-1531.406464,2833.101958,-8882.157491
1172.482142,-2105.683888,401.994197,-8843.872330
1172.484692,-1952.543242,746.560651,-9092.725880
1172.487243,-918.843878,-823.130974,-9035.298138
1172.489793,-478.564520,2277.967115,-8901.300072
1172.492344,-248.853550,2488.535504,-8977.870395
1172.494895,-937.986459,1148.554848,-8863.014910
1172.497445,-2182.254211,-1129.412267,-8843.872330
1172.499996,-1148.554848,1454.836141,-8977.870395
1172.502547,-191.425808,708.275490,-9188.438784
1172.505097,-1837.687757,1416.550979,-8767.302006
1172.507648,-2507.678085,2756.531635,-8633.303941
1172.510199,-2526.820666,-57.427742,-8977.870395
1172.512749,-3330.809059,1646.261949,-8958.727814
1172.515300,-1454.836141,-842.273555,-9303.294269
1172.517850,-631.705166,421.136778,-9150.153622
1172.520401,765.703232,2679.961312,-8977.870395
1172.522952,-95.712904,-3139.383251,-9035.298138
1172.525502,957.129040,210.568389,-8977.870395
1172.528053,153.140646,-4594.219392,-9475.577496
1172.530604,-363.709035,-114.855485,-9131.011042
1172.533154,-19.142581,248.853550,-9016.155557
1172.535705,-1129.412267,478.564520,-8901.300072
1172.538256,-765.703232,-1052.841944,-9131.011042
1172.540806,382.851616,-1052.841944,-8939.585234
1172.543357,861.416136,-2182.254211,-9284.151688
1172.545907,-172.283227,-306.281293,-8997.012976
1172.548458,-1473.978722,363.709035,-8901.300072
1172.551009,382.851616,-1914.258080,-9265.009107
1172.553559,363.709035,-1971.685822,-9533.005238
1172.556110,1990.828403,-2163.111630,-9188.438784
1172.558661,631.705166,-899.701298,-9054.440718
1172.561211,-459.421939,0.000000,-8939.585234
1172.563762,-440.279358,-1646.261949,-9035.298138
1172.566313,-1148.554848,-57.427742,-9035.298138
1172.568863,-1263.410333,3101.098090,-9073.583299
1172.571417,-2201.396792,191.425808,-9016.155557
1172.573970,-2392.822600,2450.250342,-8958.727814
1172.576523,-1837.687757,-363.709035,-9150.153622
1172.579077,-1607.976787,957.129040,-8939.585234
1172.581630,-287.138712,918.843878,-9073.583299
1172.584183,-899.701298,1110.269686,-9016.155557
1172.586737,-1856.830338,-76.570323,-9245.866526
1172.589290,-1052.841944,1512.263883,-8920.442653
1172.591843,-1990.828403,-38.285162,-9016.155557
1172.594397,-440.279358,2986.242605,-8863.014910
1172.596950,-1205.982590,880.558717,-9054.440718
1172.599503,-2258.824534,3503.092286,-8671.589102
1172.602057,-2297.109696,401.994197,-8843.872330
1172.604610,-3062.812928,459.421939,-8958.727814
1172.607163,-1741.974853,1359.123237,-9169.296203
1172.609717,-784.845813,-918.843878,-9092.725880
1172.612270,765.703232,3139.383251,-8901.300072
1172.614823,-210.568389,-3483.949706,-9111.868461
1172.617377,689.132909,1091.127106,-9073.583299
1172.619930,1033.699363,-4575.076811,-9265.009107
1172.622483,-401.994197,-1091.127106,-9092.725880
1172.625037,-19.142581,-325.423874,-9016.155557
1172.627590,-1225.125171,440.279358,-9016.155557
1172.630143,-880.558717,-1378.265818,-9303.294269
1172.632697,-535.992262,-4287.938099,-9418.149754
1172.635250,-1244.267752,-325.423874,-8977.870395
1172.637803,2182.254211,2373.680019,-9207.581365
1172.640357,-325.423874,-3330.809059,-9035.298138
1172.642910,535.992262,535.992262,-8767.302006
1172.645463,1569.691626,-3101.098090,-9571.290400
1172.648017,-306.281293,-440.279358,-9265.009107
1172.650570,1014.556782,-1225.125171,-9265.009107
1172.653126,-325.423874,-995.414202,-8786.444587
1172.655681,267.996131,-593.420005,-8977.870395
1172.658237,-1129.412267,-1225.125171,-8997.012976
1172.660793,-1550.549045,4804.787781,-8958.727814
1172.663349,-1875.972918,-1531.406464,-9054.440718
1172.665905,-2660.818731,3598.805190,-8939.585234
1172.668460,-1378.265818,-995.414202,-9111.868461
1172.671016,-2009.970984,1646.261949,-8958.727814
1172.673572,-535.992262,516.849682,-9111.868461
1172.676128,-765.703232,1282.552914,-9092.725880
1172.678683,-210.568389,2105.683888,-8977.870395
1172.681239,-574.277424,-1875.972918,-9111.868461
1172.683795,-1493.121302,1665.404530,-8920.442653
1172.686351,-459.421939,38.285162,-9245.866526
1172.688907,-2239.681954,2526.820666,-8748.159426
1172.691462,-2335.394858,2048.256146,-8767.302006
1172.694018,-2622.533570,1397.408398,-8824.729749
1172.696574,-3043.670347,650.847747,-8939.585234
1172.699130,-1780.260014,-133.998066,-9150.153622
1172.701685,-555.134843,-784.845813,-9188.438784
1172.704241,287.138712,3943.371645,-8939.585234
1172.706797,842.273555,-4345.365842,-9035.298138
1172.709353,1014.556782,823.130974,-8882.157491
1172.711909,1320.838075,-3751.945837,-9322.436850
1172.714464,-631.705166,-1129.412267,-9131.011042
1172.717020,-19.142581,325.423874,-8958.727814
1172.719576,-1225.125171,-593.420005,-9150.153622
1172.722132,-1225.125171,-957.129040,-9284.151688
1172.724687,-133.998066,-4364.508422,-9245.866526
1172.727243,76.570323,440.279358,-9226.723946
1172.729799,555.134843,-2201.396792,-9303.294269
1172.732355,-1301.695494,1569.691626,-8709.874264
1172.734910,650.847747,-2009.970984,-9456.434915
1172.737466,172.283227,-1971.685822,-9399.007173
1172.740022,1531.406464,-1033.699363,-9111.868461
1172.742578,1014.556782,-1435.693560,-9016.155557
1172.745134,-191.425808,401.994197,-8939.585234
1172.747689,-363.709035,-2220.539373,-8977.870395
1172.750245,-1359.123237,1263.410333,-8939.585234
1172.752801,-1856.830338,1339.980656,-9035.298138
1172.755359,-2067.398726,842.273555,-9016.155557
1172.757916,-2029.113565,248.853550,-8997.012976
1172.760474,-1761.117434,1052.841944,-9035.298138
1172.763032,-1512.263883,-114.855485,-8920.442653
1172.765589,-440.279358,2201.396792,-8824.729749
1172.768147,-153.140646,1301.695494,-9054.440718
1172.770705,-689.132909,1569.691626,-9016.155557
1172.773262,-1186.840010,-1569.691626,-8977.870395
1172.775820,-2545.963246,957.129040,-9035.298138
1172.778378,-918.843878,2622.533570,-9016.155557
1172.780935,-2354.537438,1110.269686,-8901.300072
1172.783493,-2469.392923,2603.390989,-8652.446522
1172.786051,-2258.824534,650.847747,-8863.014910
1172.788609,-2756.531635,1531.406464,-8997.012976
1172.791166,-1282.552914,-306.281293,-9303.294269
1172.793724,-937.986459,306.281293,-9188.438784
1172.796282,-535.992262,172.283227,-9111.868461
1172.798839,1301.695494,-2545.963246,-9073.583299
1172.801397,1186.840010,-1493.121302,-9073.583299
1172.803955,363.709035,-2813.959378,-9207.581365
1172.806512,-287.138712,-172.283227,-9054.440718
1172.809070,-574.277424,708.275490,-8977.870395
1172.811628,-1014.556782,-76.570323,-9035.298138
1172.814185,-1071.984525,-2086.541307,-9245.866526
1172.816743,248.853550,-3349.951640,-9322.436850
1172.819301,-803.988394,-1627.119368,-9456.434915
1172.821859,-784.845813,765.703232,-8863.014910
1172.824416,153.140646,-497.707101,-9054.440718
1172.826974,995.414202,-1741.974853,-9207.581365
1172.829532,1454.836141,-2067.398726,-9341.579430
1172.832089,306.281293,-823.130974,-9131.011042
1172.834647,287.138712,-1014.556782,-9035.298138
1172.837205,-153.140646,-1933.400661,-9073.583299
1172.839762,-784.845813,-76.570323,-8824.729749
1172.842320,-1512.263883,2909.672282,-8863.014910
1172.844878,-2813.959378,1110.269686,-8997.012976
1172.847435,-1780.260014,1971.685822,-9073.583299
1172.849993,-1933.400661,76.570323,-9073.583299
1172.852551,-1627.119368,440.279358,-9035.298138
1172.855108,-995.414202,976.271621,-8863.014910
1172.857668,-708.275490,1818.545176,-8824.729749
1172.860228,-1091.127106,-421.136778,-9284.151688
1172.862787,-1167.697429,1110.269686,-8997.012976
1172.865347,-2067.398726,-363.709035,-9188.438784
1172.867906,-535.992262,2909.672282,-8901.300072
1172.870466,-976.271621,842.273555,-9016.155557
1172.873025,-2335.394858,3024.527766,-8729.016845
1172.875585,-2201.396792,1588.834206,-8901.300072
1172.878144,-2641.676150,-76.570323,-8882.157491
1172.880704,-1856.830338,1722.832272,-9188.438784
1172.883263,-765.703232,-1646.261949,-9265.009107
1172.885823,306.281293,3694.518094,-8920.442653
1172.888382,861.416136,-5245.067139,-9188.438784
1172.890942,727.418070,1646.261949,-8901.300072
1172.893501,1052.841944,-4326.223261,-9303.294269
1172.896061,-133.998066,287.138712,-9016.155557
1172.898620,-555.134843,344.566454,-8901.300072
1172.901180,-1014.556782,-612.562586,-9188.438784
1172.903739,-899.701298,19.142581,-9092.725880
1172.906299,937.986459,-593.420005,-9150.153622
1172.908858,-95.712904,-5245.067139,-9513.862658
1172.911418,-1512.263883,593.420005,-9035.298138
1172.913977,-287.138712,1799.402595,-9016.155557
1172.916537,-133.998066,-3235.096155,-9341.579430
1172.919096,1952.543242,-689.132909,-9226.723946
1172.921656,1473.978722,-3541.377448,-9265.009107
1172.924215,-631.705166,765.703232,-9035.298138
1172.926775,612.562586,-2545.963246,-9226.723946
1172.929334,-899.701298,516.849682,-8786.444587
1172.931894,-727.418070,1761.117434,-8843.872330
1172.934453,-3292.523898,-459.421939,-8997.012976
1172.937013,-1512.263883,3790.230998,-8977.870395
1172.939572,-1818.545176,-1359.123237,-9226.723946
1172.942132,-2029.113565,1205.982590,-8977.870395
1172.944691,-382.851616,267.996131,-8958.727814
1172.947251,-1569.691626,2660.818731,-8901.300072
1172.949810,727.418070,612.562586,-9035.298138
1172.952370,-555.134843,-1971.685822,-8977.870395
1172.954929,-1588.834206,2239.681954,-8977.870395
1172.957489,-478.564520,-689.132909,-9284.151688
1172.960050,-2373.680019,3177.668413,-8709.874264
1172.962612,-1703.689691,1110.269686,-8824.729749
1172.965173,-3426.521963,2277.967115,-8786.444587
