#time,accel_x,accel_y,accel_z
557.620488,-689.132909,-76.570323,-9016.155557
557.622934,-689.132909,-38.285162,-9016.155557
557.625380,-612.562586,38.285162,-9035.298138
557.627826,-823.130974,-2201.396792,-8882.157491
557.630272,957.129040,95.712904,-8901.300072
557.632718,-2316.252277,-995.414202,-8748.159426
557.635164,-1646.261949,344.566454,-9111.868461
557.637610,-1741.974853,631.705166,-8863.014910
557.640056,-1741.974853,-1397.408398,-8977.870395
557.642502,-382.851616,114.855485,-8977.870395
557.644948,-1780.260014,-1339.980656,-9035.298138
557.647394,-918.843878,593.420005,-9035.298138
557.649840,-1550.549045,-555.134843,-8958.727814
557.652333,-267.996131,612.562586,-8958.727814
557.654826,-1263.410333,-478.564520,-8997.012976
557.657319,-574.277424,-899.701298,-9035.298138
557.659812,-1990.828403,-267.996131,-8939.585234
557.662305,-880.558717,287.138712,-9035.298138
557.664798,-382.851616,2067.398726,-9035.298138
557.667291,727.418070,861.416136,-9169.296203
557.669784,1091.127106,650.847747,-9131.011042
557.672277,-95.712904,-708.275490,-9245.866526
557.674770,114.855485,-842.273555,-8977.870395
557.677263,-1071.984525,555.134843,-9016.155557
557.679756,-803.988394,1397.408398,-9035.298138
557.682249,-746.560651,1301.695494,-9054.440718
557.684742,-803.988394,1225.125171,-9322.436850
557.687235,-631.705166,-76.570323,-9245.866526
557.689728,-823.130974,248.853550,-9073.583299
557.692221,-57.427742,248.853550,-9131.011042
557.694713,-746.560651,1359.123237,-8824.729749
557.697206,-1493.121302,1225.125171,-9188.438784
557.699699,-1703.689691,325.423874,-9571.290400
557.702192,1110.269686,-38.285162,-8997.012976
557.704685,-344.566454,-210.568389,-9073.583299
557.707178,765.703232,1856.830338,-8958.727814
557.709671,-516.849682,-784.845813,-9111.868461
557.712164,1569.691626,593.420005,-9054.440718
557.714657,382.851616,650.847747,-8977.870395
557.717150,-784.845813,-555.134843,-8939.585234
557.719643,-708.275490,1244.267752,-9092.725880
557.722136,-287.138712,727.418070,-9035.298138
557.724629,-153.140646,1052.841944,-9111.868461
557.727122,-57.427742,-38.285162,-9131.011042
557.729615,210.568389,-669.990328,-9035.298138
557.732108,19.142581,-172.283227,-8977.870395
557.734601,114.855485,1359.123237,-9092.725880
557.737094,-631.705166,1263.410333,-9131.011042
557.739587,-76.570323,229.710970,-9035.298138
557.742080,-1282.552914,-1110.269686,-8901.300072
557.744573,210.568389,-497.707101,-9131.011042
557.747066,-2392.822600,-555.134843,-9073.583299
557.749559,-1186.840010,-746.560651,-8920.442653
557.752079,-1780.260014,593.420005,-8843.872330
557.754600,-1588.834206,-746.560651,-9035.298138
557.757121,-516.849682,765.703232,-9188.438784
557.759641,-995.414202,-1091.127106,-9150.153622
557.762162,-593.420005,-689.132909,-8977.870395
557.764682,-1493.121302,-1186.840010,-8805.587168
557.767203,-1167.697429,38.285162,-8939.585234
557.769724,-1359.123237,784.845813,-9054.440718
557.772244,-1493.121302,38.285162,-9092.725880
557.774765,-1320.838075,-727.418070,-8958.727814
557.777286,-1569.691626,-1359.123237,-8920.442653
557.779806,-1435.693560,-1378.265818,-8882.157491
557.782327,-1646.261949,1301.695494,-9226.723946
557.784847,-1588.834206,306.281293,-8958.727814
557.787368,-1971.685822,210.568389,-8958.727814
557.789889,57.427742,-3215.953574,-9016.155557
557.792409,-267.996131,-248.853550,-9188.438784
557.794930,401.994197,-2488.535504,-8920.442653
557.797450,363.709035,650.847747,-8633.303941
557.799971,-2660.818731,-937.986459,-9188.438784
557.802492,-650.847747,1550.549045,-8958.727814
557.805012,-1990.828403,-2009.970984,-8997.012976
557.807533,-1225.125171,19.142581,-8920.442653
557.810053,-2201.396792,-746.560651,-8805.587168
557.812574,-689.132909,191.425808,-9092.725880
557.815095,-976.271621,210.568389,-9073.583299
557.817615,-669.990328,-1110.269686,-9092.725880
557.820136,-459.421939,-650.847747,-9073.583299
557.822656,-937.986459,-918.843878,-8824.729749
557.825177,-1512.263883,-535.992262,-8977.870395
557.827698,-1607.976787,746.560651,-9035.298138
557.830218,-823.130974,191.425808,-9035.298138
557.832739,-2335.394858,-1588.834206,-8920.442653
557.835260,-1167.697429,-746.560651,-9035.298138
557.837780,-1148.554848,-38.285162,-9054.440718
557.840301,421.136778,1761.117434,-9092.725880
557.842821,-1607.976787,248.853550,-9226.723946
557.845342,1244.267752,1129.412267,-9111.868461
557.847863,363.709035,1205.982590,-9092.725880
557.850383,823.130974,-95.712904,-9245.866526
557.852923,-727.418070,172.283227,-9092.725880
557.855463,-937.986459,-746.560651,-9016.155557
557.858002,-823.130974,995.414202,-8882.157491
557.860542,-880.558717,899.701298,-9092.725880
557.863082,421.136778,1416.550979,-9265.009107
557.865622,-95.712904,344.566454,-9092.725880
557.868161,229.710970,-497.707101,-9073.583299
557.870701,-459.421939,-612.562586,-8901.300072
557.873241,401.994197,784.845813,-9035.298138
557.875780,-555.134843,1282.552914,-9188.438784
557.878320,-229.710970,2067.398726,-9245.866526
557.880860,-1397.408398,133.998066,-9379.864592
557.883400,-1952.543242,-38.285162,-9131.011042
557.885939,-957.129040,-440.279358,-9169.296203
557.888479,631.705166,1550.549045,-8843.872330
557.891019,-823.130974,-1473.978722,-8920.442653
557.893558,1875.972918,2105.683888,-8901.300072
557.896098,-1550.549045,-1684.547110,-9207.581365
557.898638,899.701298,1722.832272,-9073.583299
557.901178,-382.851616,114.855485,-9226.723946
557.903717,1301.695494,-19.142581,-9016.155557
557.906257,784.845813,1033.699363,-8939.585234
557.908797,-1110.269686,-803.988394,-9188.438784
557.911336,-363.709035,1244.267752,-9054.440718
557.913876,-382.851616,708.275490,-9188.438784
557.916416,-306.281293,708.275490,-9111.868461
557.918956,-746.560651,306.281293,-8977.870395
557.921495,-133.998066,-1205.982590,-9035.298138
557.924035,153.140646,0.000000,-9073.583299
557.926575,516.849682,1110.269686,-9131.011042
557.929114,287.138712,1761.117434,-9188.438784
557.931654,210.568389,19.142581,-9035.298138
557.934194,-1339.980656,-995.414202,-8901.300072
557.936734,-248.853550,-957.129040,-9016.155557
557.939273,-2622.533570,-421.136778,-8901.300072
557.941813,-1837.687757,-937.986459,-8997.012976
557.944353,-1722.832272,880.558717,-8901.300072
557.946893,-1493.121302,-1282.552914,-9054.440718
557.949432,-229.710970,727.418070,-9073.583299
557.951972,-861.416136,-1244.267752,-9188.438784
557.954526,-191.425808,-535.992262,-8997.012976
557.957079,-1263.410333,-1110.269686,-8767.302006
557.959633,-1320.838075,-325.423874,-8901.300072
557.962187,-1435.693560,803.988394,-9131.011042
557.964740,-1339.980656,76.570323,-9073.583299
557.967294,-1550.549045,-535.992262,-8997.012976
557.969848,-1378.265818,-1665.404530,-8958.727814
557.972401,-1263.410333,-1435.693560,-8863.014910
557.974955,-1052.841944,-478.564520,-8843.872330
557.977509,-248.853550,-382.851616,-9016.155557
557.980063,0.000000,784.845813,-8882.157491
557.982616,-880.558717,-574.277424,-9035.298138
557.985170,-612.562586,-1435.693560,-8958.727814
557.987724,248.853550,-363.709035,-8767.302006
557.990277,-2450.250342,-574.277424,-9265.009107
557.992831,-708.275490,1014.556782,-8920.442653
557.995385,-2641.676150,-2009.970984,-8939.585234
557.997938,-1684.547110,899.701298,-8977.870395
558.000492,-1703.689691,114.855485,-8824.729749
558.003046,-1722.832272,-382.851616,-9284.151688
558.005599,-1110.269686,95.712904,-9035.298138
558.008153,-363.709035,-1493.121302,-8824.729749
558.010707,-1627.119368,-363.709035,-8997.012976
558.013261,-976.271621,-382.851616,-9054.440718
558.015814,-899.701298,593.420005,-8920.442653
558.018368,-899.701298,76.570323,-9054.440718
558.020922,-765.703232,-440.279358,-8863.014910
558.023475,-2450.250342,-2297.109696,-8882.157491
558.026029,-1071.984525,114.855485,-8939.585234
558.028583,-1091.127106,803.988394,-9016.155557
558.031136,957.129040,650.847747,-9150.153622
558.033690,172.283227,1780.260014,-9054.440718
558.036244,38.285162,-1014.556782,-9150.153622
558.038797,1665.404530,1244.267752,-9169.296203
558.041351,172.283227,-880.558717,-9092.725880
558.043905,-38.285162,1761.117434,-8920.442653
558.046458,-2182.254211,-708.275490,-9035.298138
558.049012,-478.564520,1244.267752,-9111.868461
558.051566,-880.558717,210.568389,-9226.723946
558.054120,899.701298,1646.261949,-9131.011042
558.056681,-459.421939,-401.994197,-9092.725880
558.059242,-19.142581,-191.425808,-9111.868461
558.061803,-440.279358,-497.707101,-9073.583299
558.064365,191.425808,593.420005,-9111.868461
558.066926,-382.851616,2641.676150,-9284.151688
558.069487,-842.273555,1722.832272,-9092.725880
558.072048,-2871.387120,-248.853550,-9131.011042
558.074610,267.996131,-363.709035,-9111.868461
558.077171,1129.412267,2622.533570,-9092.725880
558.079732,-2852.244539,-1091.127106,-9054.440718
558.082293,1435.693560,2622.533570,-9073.583299
558.084855,-861.416136,-344.566454,-9035.298138
558.087416,976.271621,-574.277424,-9265.009107
558.089977,-57.427742,555.134843,-9035.298138
558.092538,612.562586,172.283227,-9131.011042
558.095100,535.992262,1071.984525,-8997.012976
558.097661,-803.988394,248.853550,-8977.870395
558.100222,-114.855485,1607.976787,-9150.153622
558.102783,-1493.121302,-38.285162,-9360.722011
558.105345,459.421939,287.138712,-9131.011042
558.107906,-957.129040,-1110.269686,-8958.727814
558.110467,-38.285162,535.992262,-8977.870395
558.113029,-1282.552914,823.130974,-9150.153622
558.115590,229.710970,1646.261949,-9207.581365
558.118151,555.134843,631.705166,-9111.868461
558.120712,-1359.123237,-1837.687757,-9035.298138
558.123274,937.986459,133.998066,-9073.583299
558.125835,-3177.668413,-1378.265818,-9035.298138
558.128396,-1263.410333,631.705166,-8824.729749
558.130957,-3924.229064,-459.421939,-8901.300072
558.133519,-1205.982590,746.560651,-9073.583299
558.136080,-976.271621,95.712904,-9073.583299
558.138641,-440.279358,-1071.984525,-9150.153622
558.141202,-191.425808,-612.562586,-8882.157491
558.143764,-1454.836141,-1129.412267,-8748.159426
558.146325,-1167.697429,-535.992262,-8843.872330
558.148886,-1646.261949,19.142581,-9035.298138
558.151447,-248.853550,1225.125171,-9092.725880
558.154009,-2660.818731,-689.132909,-8958.727814
558.156570,-1186.840010,-1397.408398,-8939.585234
558.159137,-2029.113565,-612.562586,-9111.868461
558.161705,153.140646,76.570323,-8748.159426
558.164272,-2986.242605,1875.972918,-9284.151688
558.166839,-1971.685822,-1875.972918,-9150.153622
558.169406,-19.142581,2335.394858,-9054.440718
558.171974,-1416.550979,-5187.639397,-8901.300072
558.174541,1761.117434,1799.402595,-8863.014910
558.177108,-2507.678085,-1282.552914,-8805.587168
558.179675,-957.129040,248.853550,-9016.155557
558.182243,-2986.242605,-976.271621,-8863.014910
558.184810,-459.421939,-153.140646,-9092.725880
558.187377,-1550.549045,497.707101,-8863.014910
558.189945,-1435.693560,-1263.410333,-9150.153622
558.192512,-535.992262,-574.277424,-8863.014910
558.195079,-2756.531635,-612.562586,-8882.157491
558.197646,-191.425808,-57.427742,-9092.725880
558.200214,-1914.258080,267.996131,-9111.868461
558.202781,133.998066,382.851616,-9188.438784
558.205348,-1225.125171,-1014.556782,-8824.729749
558.207916,-1550.549045,-1952.543242,-8843.872330
558.210483,-1952.543242,-325.423874,-8843.872330
558.213050,-650.847747,1416.550979,-9131.011042
558.215617,76.570323,478.564520,-9092.725880
558.218185,746.560651,1550.549045,-9035.298138
558.220752,57.427742,-995.414202,-9073.583299
558.223319,1052.841944,631.705166,-9169.296203
558.225886,459.421939,-325.423874,-9169.296203
558.228454,-57.427742,1378.265818,-9035.298138
558.231021,-1397.408398,-287.138712,-9016.155557
558.233588,-1129.412267,803.988394,-9111.868461
558.236156,-440.279358,669.990328,-9169.296203
558.238723,650.847747,440.279358,-9188.438784
558.241290,631.705166,440.279358,-9035.298138
558.243857,-76.570323,-401.994197,-8997.012976
558.246425,669.990328,535.992262,-9016.155557
558.248992,-363.709035,-727.418070,-9054.440718
558.251559,-459.421939,1397.408398,-9188.438784
558.254127,-1416.550979,1512.263883,-9169.296203
558.256694,-1301.695494,-306.281293,-9188.438784
558.259261,229.710970,-38.285162,-8882.157491
558.261767,-842.273555,497.707101,-9092.725880
558.264273,-1473.978722,1971.685822,-9054.440718
558.266780,-497.707101,995.414202,-9111.868461
558.269286,-114.855485,114.855485,-9226.723946
558.271792,229.710970,-823.130974,-9284.151688
558.274298,861.416136,-76.570323,-9016.155557
558.276804,-612.562586,-153.140646,-9073.583299
558.279310,1014.556782,1722.832272,-9092.725880
558.281817,19.142581,1339.980656,-9111.868461
558.284323,95.712904,689.132909,-9188.438784
558.286829,-516.849682,38.285162,-9111.868461
558.289335,-1569.691626,-1186.840010,-8977.870395
558.291841,-172.283227,937.986459,-8977.870395
558.294347,-421.136778,1339.980656,-9169.296203
558.296853,689.132909,1761.117434,-9131.011042
558.299360,0.000000,-803.988394,-9054.440718
558.301866,-440.279358,-1531.406464,-8939.585234
558.304372,440.279358,-784.845813,-9111.868461
558.306878,-2335.394858,-459.421939,-8882.157491
558.309384,-2794.816797,-1282.552914,-8901.300072
558.311890,-2009.970984,574.277424,-8786.444587
558.314397,-1875.972918,-1205.982590,-8997.012976
558.316903,-555.134843,689.132909,-9150.153622
558.319409,-918.843878,-1301.695494,-9265.009107
558.321915,306.281293,-516.849682,-8920.442653
558.324421,-1167.697429,-1148.554848,-8709.874264
558.326927,-1722.832272,-574.277424,-8958.727814
558.329434,-1033.699363,784.845813,-9073.583299
558.331940,-1397.408398,-76.570323,-9188.438784
558.334446,-1703.689691,-555.134843,-9054.440718
558.336952,-2143.969050,-746.560651,-9073.583299
558.339458,-267.996131,-1837.687757,-8748.159426
558.341964,574.277424,-535.992262,-8882.157491
558.344470,-2947.957443,1186.840010,-9188.438784
558.346977,-1895.115499,-1033.699363,-9169.296203
558.349483,-497.707101,1780.260014,-9150.153622
558.351989,-3273.381317,-3445.664544,-9207.581365
558.354495,-19.142581,1320.838075,-8997.012976
558.357001,-2794.816797,-803.988394,-8958.727814
558.359507,-1033.699363,631.705166,-8863.014910
558.362032,-3407.379382,-593.420005,-9054.440718
558.364558,-2163.111630,-1952.543242,-9092.725880
558.367083,-555.134843,210.568389,-9054.440718
558.369608,-1225.125171,-1914.258080,-8958.727814
558.372133,-708.275490,708.275490,-8786.444587
558.374658,-2201.396792,-976.271621,-8958.727814
558.377183,133.998066,1397.408398,-9092.725880
558.379708,-1244.267752,-516.849682,-9150.153622
558.382233,-650.847747,-1225.125171,-8920.442653
558.384758,-2124.826469,-727.418070,-8863.014910
558.387283,-1684.547110,306.281293,-9016.155557
558.389808,-401.994197,2086.541307,-9054.440718
558.392333,-1263.410333,-267.996131,-9188.438784
558.394858,1780.260014,1493.121302,-9073.583299
558.397383,38.285162,-210.568389,-9092.725880
558.399908,1952.543242,803.988394,-9169.296203
558.402433,-421.136778,-172.283227,-8997.012976
558.404958,-459.421939,38.285162,-8997.012976
558.407483,-1531.406464,555.134843,-8997.012976
558.410008,-1397.408398,937.986459,-9245.866526
558.412533,-497.707101,1301.695494,-9245.866526
558.415058,248.853550,401.994197,-9188.438784
558.417583,995.414202,76.570323,-8977.870395
558.420109,57.427742,-440.279358,-9054.440718
558.422634,440.279358,1435.693560,-9226.723946
558.425159,-784.845813,-612.562586,-8824.729749
558.427684,899.701298,-918.843878,-8901.300072
558.430209,478.564520,2048.256146,-9035.298138
558.432734,-1952.543242,-574.277424,-9245.866526
558.435259,918.843878,-19.142581,-8729.016845
558.437784,229.710970,-497.707101,-8729.016845
558.440309,-746.560651,1416.550979,-9303.294269
558.442849,325.423874,1263.410333,-9245.866526
558.445389,-478.564520,-76.570323,-9303.294269
558.447929,1531.406464,574.277424,-8882.157491
558.450469,210.568389,497.707101,-9111.868461
558.453009,-401.994197,1703.689691,-9188.438784
558.455548,-153.140646,880.558717,-9131.011042
558.458088,172.283227,-727.418070,-9150.153622
558.460628,-363.709035,-823.130974,-9073.583299
558.463168,-1186.840010,191.425808,-9092.725880
558.465708,-669.990328,1205.982590,-9092.725880
558.468248,-38.285162,2277.967115,-9073.583299
558.470788,574.277424,650.847747,-9265.009107
558.473328,172.283227,-765.703232,-9035.298138
558.475868,-612.562586,-1167.697429,-9073.583299
558.478408,-306.281293,-899.701298,-8977.870395
558.480948,-1531.406464,535.992262,-8824.729749
558.483488,-3713.660675,-1014.556782,-8863.014910
558.486028,-2297.109696,516.849682,-8863.014910
558.488568,-2009.970984,-1148.554848,-9131.011042
558.491108,210.568389,210.568389,-9092.725880
558.493648,-516.849682,-918.843878,-9054.440718
558.496187,-440.279358,-823.130974,-8920.442653
558.498727,-1033.699363,-478.564520,-8863.014910
558.501267,-1607.976787,-612.562586,-8958.727814
558.503807,-689.132909,382.851616,-9035.298138
558.506347,-1875.972918,574.277424,-8939.585234
558.508887,-2411.965181,-1320.838075,-8901.300072
558.511427,-2239.681954,382.851616,-9245.866526
558.513967,-1684.547110,-727.418070,-9054.440718
558.516507,535.992262,-1320.838075,-9092.725880
558.519047,-593.420005,114.855485,-8958.727814
558.521587,1244.267752,-2986.242605,-8671.589102
558.524127,95.712904,1225.125171,-8977.870395
558.526667,-2890.529701,-2813.959378,-9073.583299
558.529207,-823.130974,1225.125171,-8690.731683
558.531747,-2947.957443,-842.273555,-8958.727814
558.534287,-38.285162,631.705166,-8939.585234
558.536826,-1148.554848,-459.421939,-8843.872330
558.539366,-1167.697429,-1646.261949,-9073.583299
558.541906,-2469.392923,-421.136778,-8843.872330
558.544457,-1244.267752,-727.418070,-9035.298138
558.547007,-516.849682,1320.838075,-8997.012976
558.549557,-727.418070,-267.996131,-9035.298138
558.552108,-325.423874,-19.142581,-9073.583299
558.554658,-2450.250342,-2431.107762,-8977.870395
558.557208,-1167.697429,-191.425808,-8997.012976
558.559758,-1722.832272,1607.976787,-8977.870395
558.562309,535.992262,746.560651,-9188.438784
558.564859,-248.853550,1799.402595,-9035.298138
558.567409,-76.570323,-1263.410333,-9150.153622
558.569960,1454.836141,1263.410333,-9169.296203
558.572510,918.843878,306.281293,-9245.866526
558.575060,-76.570323,1512.263883,-8901.300072
558.577610,-1416.550979,-631.705166,-8939.585234
558.580161,-440.279358,1033.699363,-9150.153622
558.582711,-1186.840010,440.279358,-9226.723946
558.585261,0.000000,1550.549045,-9303.294269
558.587811,-708.275490,172.283227,-9169.296203
558.590362,1186.840010,0.000000,-8939.585234
558.592912,440.279358,-344.566454,-8939.585234
558.595462,76.570323,-440.279358,-8901.300072
558.598012,-555.134843,2699.103893,-9092.725880
558.600563,-4613.361973,-38.285162,-9437.292334
558.603113,2373.680019,2239.681954,-9341.579430
558.605663,-3464.807125,-535.992262,-8901.300072
558.608213,-287.138712,421.136778,-9092.725880
558.610764,650.847747,803.988394,-8709.874264
558.613314,-172.283227,-1971.685822,-9494.720077
558.615864,2163.111630,1780.260014,-9111.868461
558.618414,-1359.123237,-267.996131,-9150.153622
558.620965,1646.261949,1205.982590,-9035.298138
558.623515,-172.283227,784.845813,-8901.300072
558.626065,823.130974,-153.140646,-9073.583299
558.628616,-1052.841944,765.703232,-9131.011042
558.631166,-880.558717,-1244.267752,-9207.581365
558.633716,0.000000,1148.554848,-9016.155557
558.636266,19.142581,1148.554848,-8997.012976
558.638817,1148.554848,1378.265818,-9016.155557
558.641367,-210.568389,-382.851616,-9016.155557
558.643917,-153.140646,-784.845813,-8977.870395
558.646476,-133.998066,-1091.127106,-9035.298138
558.649035,-1607.976787,-210.568389,-8939.585234
558.651593,-2009.970984,-976.271621,-8901.300072
558.654152,-2775.674216,95.712904,-8805.587168
558.656711,-2124.826469,-516.849682,-8958.727814
558.659270,-1014.556782,229.710970,-9092.725880
558.661828,-631.705166,-918.843878,-9226.723946
558.664387,153.140646,-287.138712,-8977.870395
558.666946,-765.703232,-1301.695494,-8805.587168
558.669505,-1244.267752,-363.709035,-8958.727814
558.672063,-1856.830338,153.140646,-9035.298138
558.674622,-2411.965181,-325.423874,-8977.870395
558.677181,-689.132909,-555.134843,-8843.872330
558.679739,-2852.244539,-38.285162,-9169.296203
558.682298,-535.992262,-1741.974853,-8939.585234
558.684857,3349.951640,-19.142581,-8786.444587
558.687416,-4996.213589,229.710970,-8901.300072
558.689974,937.986459,-1818.545176,-8958.727814
558.692533,1703.689691,4249.652938,-9150.153622
558.695092,-2813.959378,-3675.375514,-9245.866526
558.697651,-210.568389,1301.695494,-8499.305875
558.700209,-4555.934230,-2048.256146,-9054.440718
558.702768,-210.568389,1607.976787,-9035.298138
558.705327,-1990.828403,-1148.554848,-8939.585234
558.707886,-1148.554848,-1990.828403,-9169.296203
558.710444,-861.416136,76.570323,-8882.157491
558.713003,-1148.554848,-765.703232,-9016.155557
558.715562,-95.712904,1473.978722,-8977.870395
558.718121,-1186.840010,-669.990328,-8977.870395
558.720679,-650.847747,-1607.976787,-8939.585234
558.723238,-2163.111630,-1435.693560,-8901.300072
558.725797,-1014.556782,114.855485,-8958.727814
558.728356,-1569.691626,2220.539373,-9150.153622
558.730914,-2029.113565,-650.847747,-9188.438784
558.733473,1933.400661,1895.115499,-8997.012976
558.736032,-248.853550,-1052.841944,-9131.011042
558.738591,2603.390989,880.558717,-9188.438784
558.741149,325.423874,-478.564520,-9092.725880
558.743708,114.855485,1033.699363,-9016.155557
558.746267,-1933.400661,0.000000,-8920.442653
558.748832,-1588.834206,421.136778,-9207.581365
558.751397,-210.568389,1071.984525,-9303.294269
558.753963,440.279358,1167.697429,-9073.583299
558.756528,382.851616,248.853550,-9035.298138
558.759093,-76.570323,-535.992262,-9092.725880
558.761658,899.701298,1091.127106,-9207.581365
558.764224,-650.847747,995.414202,-9092.725880
558.766789,-689.132909,-1703.689691,-8729.016845
558.769354,4728.217458,1512.263883,-8920.442653
558.771920,-3349.951640,267.996131,-9322.436850
558.774485,-1244.267752,555.134843,-9131.011042
558.777050,1148.554848,1397.408398,-8709.874264
558.779615,-555.134843,-2067.398726,-9131.011042
558.782181,1780.260014,3215.953574,-9169.296203
558.784746,-1435.693560,-1244.267752,-9418.149754
558.787311,1818.545176,2258.824534,-8920.442653
558.789877,-976.271621,861.416136,-8997.012976
558.792442,38.285162,-95.712904,-9035.298138
558.795007,-344.566454,497.707101,-9035.298138
558.797572,-937.986459,-535.992262,-8997.012976
558.800138,-1167.697429,803.988394,-9188.438784
558.802703,861.416136,1531.406464,-9188.438784
558.805268,689.132909,1014.556782,-9207.581365
558.807834,-191.425808,-1014.556782,-8863.014910
558.810399,-172.283227,19.142581,-8958.727814
558.812964,-1856.830338,-2048.256146,-9054.440718
558.815529,-1167.697429,1110.269686,-8824.729749
558.818095,-3503.092286,-1741.974853,-8939.585234
558.820660,-1607.976787,1627.119368,-8824.729749
558.823225,-2833.101958,-1780.260014,-9054.440718
558.825791,-153.140646,918.843878,-9092.725880
558.828356,-765.703232,-401.994197,-9131.011042
558.830921,-440.279358,-1052.841944,-8977.870395
558.833486,-593.420005,-612.562586,-8843.872330
558.836052,-1722.832272,-612.562586,-8863.014910
558.838617,-1971.685822,631.705166,-8997.012976
558.841182,-2258.824534,-325.423874,-9188.438784
558.843748,-1990.828403,-689.132909,-8767.302006
558.846313,-2143.969050,-3981.656806,-9169.296203
558.848878,4307.080680,1435.693560,-8690.731683
558.851448,-5225.924558,-2737.389054,-9016.155557
558.854017,2660.818731,1014.556782,-8690.731683
558.856586,-1627.119368,861.416136,-8805.587168
558.859156,-2182.254211,-2354.537438,-9322.436850
558.861725,-1454.836141,1569.691626,-9035.298138
558.864295,-2488.535504,-2641.676150,-8824.729749
558.866864,727.418070,1627.119368,-8901.300072
558.869434,-3081.955509,-2220.539373,-8997.012976
558.872003,-708.275490,-382.851616,-9073.583299
558.874573,-2469.392923,95.712904,-8958.727814
558.877142,306.281293,-363.709035,-9169.296203
558.879712,-1359.123237,478.564520,-9016.155557
558.882281,287.138712,-172.283227,-9111.868461
558.884851,-2029.113565,-823.130974,-8920.442653
558.887420,-2679.961312,-1512.263883,-8997.012976
558.889990,-516.849682,1493.121302,-8901.300072
558.892559,-1416.550979,1186.840010,-9188.438784
558.895128,-937.986459,1263.410333,-9284.151688
558.897698,421.136778,114.855485,-9188.438784
558.900267,918.843878,248.853550,-9054.440718
558.902837,1416.550979,344.566454,-9054.440718
558.905406,382.851616,478.564520,-9035.298138
558.907976,-478.564520,76.570323,-9035.298138
558.910545,-1282.552914,976.271621,-8977.870395
558.913115,-1512.263883,-114.855485,-9092.725880
558.915684,-19.142581,1320.838075,-9169.296203
558.918254,-229.710970,727.418070,-9150.153622
558.920823,382.851616,191.425808,-9073.583299
558.923393,650.847747,-650.847747,-8977.870395
558.925962,287.138712,574.277424,-9207.581365
558.928531,-689.132909,-1129.412267,-8595.018779
558.931101,1473.978722,1110.269686,-9035.298138
558.933670,-765.703232,-1435.693560,-9188.438784
558.936240,1914.258080,2277.967115,-9073.583299
558.938809,-2469.392923,-574.277424,-9054.440718
558.941379,765.703232,1722.832272,-9111.868461
558.943948,612.562586,1205.982590,-9284.151688
558.946518,325.423874,-708.275490,-9303.294269
558.949087,1722.832272,2641.676150,-8977.870395
558.951657,-1205.982590,-1186.840010,-9073.583299
558.954230,401.994197,1339.980656,-9016.155557
558.956803,-1110.269686,-1052.841944,-9016.155557
558.959375,19.142581,995.414202,-8958.727814
558.961948,-1550.549045,1129.412267,-8997.012976
558.964521,574.277424,1875.972918,-9207.581365
558.967094,459.421939,593.420005,-9131.011042
558.969667,459.421939,-1205.982590,-8997.012976
558.972240,-267.996131,-267.996131,-9035.298138
558.974813,-1512.263883,-1320.838075,-9016.155557
558.977386,-1990.828403,784.845813,-8824.729749
558.979959,-3656.232933,-1914.258080,-8939.585234
558.982532,-1665.404530,765.703232,-8901.300072
558.985105,-2258.824534,-1110.269686,-9150.153622
558.987678,0.000000,421.136778,-9054.440718
558.990251,-937.986459,-689.132909,-9092.725880
558.992824,-133.998066,-1110.269686,-9016.155557
558.995397,-918.843878,-765.703232,-8863.014910
558.997970,-1454.836141,-784.845813,-8901.300072
559.000543,-1722.832272,440.279358,-9035.298138
559.003116,-2584.248408,267.996131,-9073.583299
559.005689,-1052.841944,-631.705166,-8805.587168
559.008262,-363.709035,-287.138712,-9111.868461
559.010835,-2029.113565,-248.853550,-9131.011042
559.013408,-2354.537438,-708.275490,-8997.012976
559.015980,784.845813,-1703.689691,-8575.876198
559.018553,-842.273555,1186.840010,-9169.296203
559.021126,-1895.115499,-1416.550979,-9131.011042
559.023699,-2220.539373,19.142581,-8958.727814
559.026272,-1875.972918,-1167.697429,-8690.731683
559.028845,-574.277424,-937.986459,-8709.874264
559.031418,-2450.250342,-76.570323,-9073.583299
559.033991,-1320.838075,-669.990328,-9188.438784
559.036564,-1091.127106,-153.140646,-8824.729749
559.039137,-344.566454,-555.134843,-9150.153622
559.041710,689.132909,497.707101,-8997.012976
559.044283,-2526.820666,-2565.105827,-8901.300072
559.046856,-1473.978722,-382.851616,-8882.157491
559.049429,-2565.105827,287.138712,-8901.300072
559.052002,-440.279358,2067.398726,-9226.723946
559.054575,-1761.117434,0.000000,-9207.581365
559.057151,1818.545176,1301.695494,-9092.725880
559.059726,1244.267752,1148.554848,-9188.438784
559.062302,1301.695494,133.998066,-9073.583299
559.064878,861.416136,516.849682,-8977.870395
559.067454,-497.707101,267.996131,-9073.583299
559.070030,-1110.269686,497.707101,-8977.870395
559.072605,-1588.834206,325.423874,-9092.725880
559.075181,-421.136778,1071.984525,-9150.153622
559.077757,-631.705166,1148.554848,-9073.583299
559.080333,497.707101,-114.855485,-9035.298138
559.082908,153.140646,995.414202,-9322.436850
559.085484,1263.410333,593.420005,-9073.583299
559.088060,-2335.394858,899.701298,-8997.012976
559.090636,-2986.242605,172.283227,-9265.009107
559.093212,2488.535504,1741.974853,-9016.155557
559.095787,-727.418070,-57.427742,-8939.585234
559.098363,-1091.127106,-363.709035,-9073.583299
559.100939,344.566454,2526.820666,-9073.583299
559.103515,19.142581,95.712904,-9456.434915
559.106091,2354.537438,1837.687757,-9111.868461
559.108666,-516.849682,-191.425808,-9169.296203
559.111242,344.566454,957.129040,-9054.440718
559.113818,-631.705166,-191.425808,-8958.727814
559.116394,-823.130974,-267.996131,-9016.155557
559.118970,-459.421939,1320.838075,-9111.868461
559.121545,-267.996131,976.271621,-9073.583299
559.124121,555.134843,1359.123237,-9265.009107
559.126697,918.843878,57.427742,-9131.011042
559.129273,-708.275490,-899.701298,-9111.868461
559.131849,76.570323,-669.990328,-9016.155557
559.134424,-2411.965181,-574.277424,-8882.157491
559.137000,-2182.254211,-842.273555,-8709.874264
559.139576,-2297.109696,708.275490,-8824.729749
559.142152,-2909.672282,-1052.841944,-9150.153622
559.144728,-516.849682,1014.556782,-9131.011042
559.147303,-976.271621,-1799.402595,-9150.153622
559.149879,1071.984525,172.283227,-8958.727814
559.152455,-1186.840010,-1665.404530,-8939.585234
559.155031,-803.988394,-363.709035,-8882.157491
559.157607,-1722.832272,-57.427742,-8920.442653
559.160184,-2258.824534,-478.564520,-9111.868461
559.162762,-1416.550979,-861.416136,-8863.014910
559.165339,-191.425808,-1665.404530,-9054.440718
559.167917,153.140646,248.853550,-8939.585234
559.170495,-1473.978722,-1167.697429,-9111.868461
559.173072,-210.568389,1741.974853,-8767.302006
559.175650,-2909.672282,-1263.410333,-9150.153622
559.178228,-918.843878,-210.568389,-8977.870395
559.180805,-2220.539373,-880.558717,-8977.870395
559.183383,-2967.100024,-1895.115499,-8920.442653
559.185961,-1493.121302,574.277424,-8843.872330
559.188538,-2545.963246,-1129.412267,-9035.298138
559.191116,-669.990328,803.988394,-9092.725880
559.193694,-1129.412267,-593.420005,-9092.725880
559.196271,95.712904,-76.570323,-9188.438784
559.198849,-287.138712,-765.703232,-8882.157491
559.201427,-2067.398726,-1627.119368,-8863.014910
559.204004,-2718.246474,-555.134843,-8901.300072
559.206582,-1301.695494,1091.127106,-8977.870395
559.209160,-363.709035,1588.834206,-9131.011042
559.211737,-880.558717,823.130974,-9188.438784
559.214315,1071.984525,1186.840010,-9265.009107
559.216893,1512.263883,976.271621,-9265.009107
559.219470,1225.125171,287.138712,-9169.296203
559.222048,114.855485,459.421939,-8882.157491
559.224625,-19.142581,95.712904,-8882.157491
559.227203,-1493.121302,382.851616,-8939.585234
559.229781,-1397.408398,574.277424,-9188.438784
559.232358,-593.420005,765.703232,-9092.725880
559.234936,229.710970,689.132909,-9131.011042
559.237514,574.277424,842.273555,-9207.581365
559.240091,1895.115499,-842.273555,-8786.444587
559.242669,497.707101,689.132909,-9054.440718
559.245247,-2852.244539,669.990328,-8939.585234
559.247824,-574.277424,229.710970,-9054.440718
559.250402,631.705166,-765.703232,-9092.725880
559.252980,497.707101,937.986459,-8863.014910
559.255557,574.277424,421.136778,-9016.155557
559.258135,153.140646,1282.552914,-9226.723946
559.260713,1722.832272,746.560651,-9169.296203
559.263291,995.414202,363.709035,-9054.440718
559.265870,-38.285162,114.855485,-9111.868461
559.268449,-497.707101,535.992262,-8901.300072
559.271027,-1761.117434,-689.132909,-9016.155557
559.273606,-650.847747,957.129040,-9054.440718
559.276185,95.712904,1129.412267,-9303.294269
559.278764,478.564520,995.414202,-9131.011042
559.281342,689.132909,-574.277424,-9016.155557
559.283921,19.142581,-631.705166,-9054.440718
559.286500,-95.712904,-784.845813,-9111.868461
559.289079,-1875.972918,-363.709035,-8824.729749
559.291657,-2220.539373,-1416.550979,-8843.872330
559.294236,-2545.963246,210.568389,-8748.159426
559.296815,-2316.252277,-861.416136,-9073.583299
559.299393,-957.129040,631.705166,-9150.153622
559.301972,-803.988394,-1263.410333,-9131.011042
559.304551,689.132909,-172.283227,-8939.585234
559.307130,-995.414202,-1531.406464,-8958.727814
559.309708,-669.990328,-727.418070,-8939.585234
559.312287,-1607.976787,287.138712,-8805.587168
559.314866,-2335.394858,-1397.408398,-8824.729749
559.317444,-1033.699363,-287.138712,-8824.729749
559.320023,-918.843878,1971.685822,-9303.294269
559.322602,-4268.795518,-2928.814862,-9379.864592
559.325181,3751.945837,248.853550,-8786.444587
559.327759,-1301.695494,267.996131,-8614.161360
559.330338,-3043.670347,-2048.256146,-8863.014910
559.332917,-650.847747,-76.570323,-8882.157491
559.335495,-4307.080680,-2009.970984,-9111.868461
559.338074,-650.847747,784.845813,-8824.729749
559.340653,-2756.531635,-823.130974,-8863.014910
559.343232,-1148.554848,-765.703232,-9111.868461
559.345810,-1205.982590,306.281293,-9054.440718
559.348389,210.568389,-574.277424,-9226.723946
559.350968,76.570323,114.855485,-9016.155557
559.353547,-2565.105827,-2258.824534,-8786.444587
559.356125,-1550.549045,-287.138712,-8901.300072
559.358704,-2794.816797,555.134843,-8977.870395
559.361283,-133.998066,1990.828403,-9188.438784
559.363861,-2239.681954,382.851616,-9131.011042
559.366405,1703.689691,612.562586,-9265.009107
559.368948,823.130974,421.136778,-9131.011042
559.371491,1339.980656,-1110.269686,-9131.011042
559.374035,1378.265818,631.705166,-8977.870395
559.376578,-842.273555,229.710970,-9035.298138
559.379121,-1703.689691,382.851616,-9054.440718
559.381664,-1703.689691,689.132909,-9188.438784
559.384208,-401.994197,689.132909,-9169.296203
559.386751,-133.998066,918.843878,-8997.012976
559.389294,918.843878,880.558717,-9169.296203
559.391837,-19.142581,746.560651,-9226.723946
559.394381,-1359.123237,114.855485,-9245.866526
559.396924,1091.127106,248.853550,-8805.587168
559.399467,1167.697429,-1052.841944,-8843.872330
559.402011,-153.140646,-38.285162,-9073.583299
559.404554,-1914.258080,1627.119368,-9341.579430
559.407097,995.414202,1129.412267,-9073.583299
559.409640,1990.828403,2239.681954,-9169.296203
559.412184,1091.127106,133.998066,-9226.723946
559.414727,861.416136,1052.841944,-9188.438784
559.417270,-957.129040,-382.851616,-9207.581365
559.419814,-689.132909,172.283227,-9016.155557
559.422357,-1301.695494,172.283227,-8863.014910
559.424900,-784.845813,1148.554848,-9073.583299
559.427443,363.709035,1607.976787,-9169.296203
559.429987,516.849682,-76.570323,-9188.438784
559.432530,-114.855485,-918.843878,-9054.440718
559.435073,306.281293,-191.425808,-9035.298138
559.437616,-1435.693560,-1263.410333,-9016.155557
559.440160,-1263.410333,535.992262,-8805.587168
559.442703,-4364.508422,-1454.836141,-8901.300072
559.445246,-3043.670347,287.138712,-8958.727814
559.447790,-1684.547110,-57.427742,-9169.296203
559.450333,-344.566454,-172.283227,-9150.153622
559.452876,-210.568389,-382.851616,-8977.870395
559.455419,-574.277424,-1282.552914,-9111.868461
559.457963,-765.703232,-803.988394,-8958.727814
559.460506,-1569.691626,-880.558717,-8824.729749
559.463049,-1684.547110,287.138712,-8939.585234
559.465593,-2584.248408,-1129.412267,-8977.870395
559.468143,-1607.976787,-1282.552914,-9111.868461
559.470694,1454.836141,0.000000,-9131.011042
559.473244,-2335.394858,-1990.828403,-8977.870395
559.475795,382.851616,172.283227,-8901.300072
559.478346,-784.845813,-306.281293,-8633.303941
559.480896,-2067.398726,-1014.556782,-9092.725880
559.483447,-2029.113565,267.996131,-9092.725880
559.485997,-3751.945837,-2431.107762,-8920.442653
559.488548,-535.992262,555.134843,-8824.729749
559.491099,-2297.109696,-669.990328,-8882.157491
559.493649,-76.570323,229.710970,-9131.011042
559.496200,-803.988394,76.570323,-9150.153622
559.498750,95.712904,-574.277424,-9226.723946
559.501301,-2297.109696,-2067.398726,-8939.585234
559.503852,-1454.836141,-937.986459,-8958.727814
559.506402,-1378.265818,2297.109696,-8786.444587
559.508953,-1378.265818,229.710970,-9092.725880
559.511503,-114.855485,2201.396792,-9150.153622
559.514054,-95.712904,-1435.693560,-9303.294269
559.516605,2316.252277,1856.830338,-9169.296203
559.519155,1397.408398,-784.845813,-9245.866526
559.521706,1052.841944,1167.697429,-8939.585234
559.524256,-708.275490,-153.140646,-8958.727814
559.526807,-1627.119368,669.990328,-9054.440718
559.529358,-1282.552914,937.986459,-9265.009107
559.531908,-918.843878,1244.267752,-9265.009107
559.534459,-344.566454,823.130974,-9111.868461
559.537009,593.420005,287.138712,-9035.298138
559.539560,0.000000,0.000000,-9341.579430
559.542111,2335.394858,535.992262,-8748.159426
559.544661,-153.140646,574.277424,-8786.444587
559.547212,-172.283227,-95.712904,-9111.868461
559.549762,-669.990328,1416.550979,-9188.438784
559.552313,-918.843878,38.285162,-9245.866526
559.554864,1990.828403,1895.115499,-8824.729749
559.557414,918.843878,574.277424,-9054.440718
559.559965,861.416136,631.705166,-9341.579430
559.562515,-478.564520,76.570323,-9092.725880
559.565066,-612.562586,-76.570323,-9150.153622
559.567617,-727.418070,765.703232,-8863.014910
559.570174,-1531.406464,842.273555,-9073.583299
559.572730,57.427742,2105.683888,-9188.438784
559.575287,229.710970,0.000000,-9131.011042
559.577843,918.843878,-306.281293,-9073.583299
559.580400,-880.558717,-612.562586,-9092.725880
559.582957,-1148.554848,-1301.695494,-9092.725880
559.585513,-1473.978722,689.132909,-8882.157491
559.588070,-3503.092286,-1837.687757,-8805.587168
559.590627,-2584.248408,574.277424,-8786.444587
559.593183,-2488.535504,-1071.984525,-9054.440718
559.595740,-1033.699363,631.705166,-9035.298138
559.598296,-842.273555,-957.129040,-9035.298138
559.600853,-191.425808,-861.416136,-8997.012976
559.603410,-593.420005,-957.129040,-9073.583299
559.605966,-1071.984525,-995.414202,-8939.585234
559.608523,-1971.685822,669.990328,-8939.585234
559.611080,-1416.550979,-995.414202,-8709.874264
559.613636,-1627.119368,1703.689691,-9092.725880
559.616193,-3560.520029,-1359.123237,-9322.436850
559.618750,861.416136,1339.980656,-9131.011042
559.621306,-2507.678085,-267.996131,-8901.300072
559.623863,-2297.109696,-995.414202,-9073.583299
559.626419,-1493.121302,1320.838075,-8901.300072
559.628976,-3483.949706,-1952.543242,-9284.151688
559.631533,-2009.970984,-210.568389,-8748.159426
559.634089,-2603.390989,-1856.830338,-8939.585234
559.636646,-325.423874,1186.840010,-8920.442653
559.639203,-957.129040,267.996131,-9016.155557
559.641759,899.701298,-114.855485,-9111.868461
559.644316,-1282.552914,-1627.119368,-9016.155557
559.646872,-1167.697429,-1952.543242,-8958.727814
559.649429,-1914.258080,248.853550,-8920.442653
559.651986,-1531.406464,746.560651,-8920.442653
559.654542,-19.142581,1684.547110,-9092.725880
559.657099,-823.130974,976.271621,-9111.868461
559.659656,765.703232,-421.136778,-9150.153622
559.662212,1684.547110,842.273555,-9303.294269
559.664769,1110.269686,497.707101,-9245.866526
559.667325,-172.283227,631.705166,-8843.872330
559.669882,57.427742,95.712904,-8882.157491
559.672443,-1933.400661,957.129040,-9054.440718
559.675004,-1301.695494,669.990328,-9284.151688
559.677564,-133.998066,1416.550979,-9092.725880
559.680125,-918.843878,421.136778,-9265.009107
559.682686,1933.400661,823.130974,-8977.870395
559.685247,-344.566454,363.709035,-9226.723946
559.687808,-2009.970984,746.560651,-9188.438784
559.690368,957.129040,2297.109696,-8901.300072
559.692929,-1761.117434,-631.705166,-9150.153622
559.695490,-478.564520,1110.269686,-9322.436850
559.698051,957.129040,1856.830338,-8882.157491
559.700611,306.281293,306.281293,-9226.723946
559.703172,1914.258080,1320.838075,-9092.725880
559.705733,-459.421939,-401.994197,-9245.866526
559.708294,210.568389,478.564520,-9131.011042
559.710855,-1339.980656,535.992262,-9092.725880
559.713415,-1091.127106,1186.840010,-9073.583299
559.715976,-363.709035,2048.256146,-9150.153622
559.718537,306.281293,210.568389,-9169.296203
559.721098,631.705166,-650.847747,-9016.155557
559.723658,-478.564520,-114.855485,-9054.440718
559.726219,-229.710970,-1225.125171,-8997.012976
559.728780,-1837.687757,248.853550,-8920.442653
559.731341,-2565.105827,-1761.117434,-8843.872330
559.733902,-2565.105827,363.709035,-8729.016845
559.736462,-2048.256146,-689.132909,-9054.440718
559.739023,-1282.552914,306.281293,-9035.298138
559.741584,-803.988394,-746.560651,-9111.868461
559.744145,267.996131,-1052.841944,-8958.727814
559.746706,-267.996131,-1110.269686,-8824.729749
559.749266,-1244.267752,-1014.556782,-8977.870395
559.751827,-2431.107762,1167.697429,-9150.153622
559.754388,-1435.693560,-229.710970,-8882.157491
559.756949,-2488.535504,842.273555,-9169.296203
559.759509,-1052.841944,-899.701298,-9265.009107
559.762070,-57.427742,-1531.406464,-8863.014910
559.764631,-440.279358,-38.285162,-8882.157491
559.767192,-1646.261949,-382.851616,-8709.874264
559.769753,-2373.680019,-937.986459,-9150.153622
559.772313,-3349.951640,-1282.552914,-9111.868461
559.774878,-1837.687757,-1205.982590,-8748.159426
559.777442,-1512.263883,440.279358,-8939.585234
559.780006,-1416.550979,-497.707101,-9016.155557
559.782570,-38.285162,401.994197,-9054.440718
559.785135,-363.709035,-574.277424,-9245.866526
559.787699,-1378.265818,-1875.972918,-8901.300072
559.790263,-1914.258080,-1091.127106,-8958.727814
559.792827,-1550.549045,1014.556782,-9016.155557
559.795392,-535.992262,1588.834206,-9016.155557
559.797956,-1646.261949,708.275490,-9226.723946
559.800520,363.709035,325.423874,-9169.296203
559.803084,1320.838075,516.849682,-9092.725880
559.805649,2354.537438,-325.423874,-9303.294269
559.808213,1052.841944,823.130974,-8997.012976
559.810777,-1091.127106,976.271621,-9016.155557
559.813341,-1971.685822,382.851616,-9016.155557
559.815905,-957.129040,708.275490,-9207.581365
559.818470,-363.709035,306.281293,-9150.153622
559.821034,401.994197,1167.697429,-8977.870395
559.823598,-229.710970,133.998066,-9150.153622
559.826162,1588.834206,-2163.111630,-9054.440718
559.828727,3330.809059,669.990328,-8805.587168
559.831291,-1359.123237,995.414202,-8863.014910
559.833855,382.851616,1301.695494,-8939.585234
559.836419,-2469.392923,19.142581,-9456.434915
559.838984,1722.832272,1875.972918,-9226.723946
559.841548,1129.412267,-210.568389,-9016.155557
559.844112,1856.830338,650.847747,-8997.012976
559.846676,-708.275490,612.562586,-9169.296203
559.849241,440.279358,0.000000,-9169.296203
559.851805,-325.423874,957.129040,-9016.155557
559.854369,-1225.125171,497.707101,-9131.011042
559.856937,114.855485,2277.967115,-9092.725880
559.859504,-363.709035,363.709035,-9169.296203
559.862072,842.273555,-535.992262,-8977.870395
559.864640,-593.420005,-689.132909,-9035.298138
559.867207,-95.712904,-1301.695494,-9016.155557
559.869775,-1493.121302,210.568389,-8901.300072
559.872343,-3598.805190,-1627.119368,-8882.157491
559.874910,-2163.111630,401.994197,-8805.587168
559.877478,-2565.105827,-669.990328,-9092.725880
559.880045,-1378.265818,287.138712,-9073.583299
559.882613,-593.420005,-899.701298,-9054.440718
559.885181,-153.140646,-440.279358,-8997.012976
559.887748,-689.132909,-1454.836141,-8920.442653
559.890316,-1071.984525,440.279358,-8997.012976
559.892884,-1837.687757,-1665.404530,-8729.016845
559.895451,-842.273555,-440.279358,-8882.157491
559.898019,-2622.533570,1167.697429,-9245.866526
559.900587,-1397.408398,-1014.556782,-9341.579430
559.903154,-76.570323,631.705166,-8977.870395
559.905722,-2909.672282,-1435.693560,-8863.014910
559.908289,-1091.127106,593.420005,-8824.729749
559.910857,-3139.383251,-1684.547110,-9111.868461
559.913425,-2163.111630,-440.279358,-8997.012976
559.915992,-3120.240670,-535.992262,-8939.585234
559.918560,-1531.406464,-153.140646,-8977.870395
559.921128,-1359.123237,133.998066,-9073.583299
559.923695,708.275490,210.568389,-9131.011042
559.926263,-382.851616,-1761.117434,-8977.870395
559.928831,-1722.832272,-1722.832272,-8786.444587
559.931398,-1320.838075,306.281293,-8882.157491
559.933966,-2009.970984,2201.396792,-9188.438784
559.936533,-784.845813,-38.285162,-9073.583299
559.939101,708.275490,1837.687757,-8901.300072
559.941669,-172.283227,-1071.984525,-9169.296203
559.944236,2201.396792,1531.406464,-9207.581365
559.946804,1052.841944,-516.849682,-9303.294269
559.949372,746.560651,1110.269686,-8863.014910
559.951939,-229.710970,-38.285162,-8786.444587
559.954507,-995.414202,918.843878,-9035.298138
559.957075,-1684.547110,918.843878,-9188.438784
559.959644,-325.423874,784.845813,-9111.868461
559.962214,421.136778,-172.283227,-9150.153622
559.964783,1435.693560,2297.109696,-9016.155557
559.967353,-401.994197,1875.972918,-9054.440718
559.969922,-3254.238736,-1952.543242,-9207.581365
559.972492,3675.375514,3043.670347,-8652.446522
559.975061,-2967.100024,-1473.978722,-9686.145885
559.977631,1588.834206,3981.656806,-9054.440718
559.980201,-861.416136,-1875.972918,-9379.864592
559.982770,2986.242605,1416.550979,-8939.585234
559.985340,-153.140646,1052.841944,-9092.725880
559.987909,-1435.693560,-1359.123237,-9207.581365
559.990479,133.998066,2316.252277,-9131.011042
559.993048,-1703.689691,-287.138712,-9131.011042
559.995618,574.277424,2507.678085,-9111.868461
559.998187,-555.134843,248.853550,-9035.298138
560.000757,76.570323,-823.130974,-9016.155557
560.003326,-95.712904,459.421939,-8958.727814
560.005896,-1722.832272,-2009.970984,-9016.155557
560.008466,-727.418070,267.996131,-8863.014910
560.011035,-3732.803256,-1282.552914,-8920.442653
560.013605,-2009.970984,382.851616,-8767.302006
560.016174,-2756.531635,-191.425808,-9054.440718
560.018744,-1397.408398,-325.423874,-9111.868461
560.021313,-593.420005,-478.564520,-9054.440718
560.023883,-229.710970,-1282.552914,-8997.012976
560.026452,-382.851616,-899.701298,-8882.157491
560.029022,-1531.406464,-1014.556782,-8824.729749
560.031592,-1971.685822,-229.710970,-8863.014910
560.034161,-1225.125171,-1091.127106,-8958.727814
560.036731,-57.427742,669.990328,-8958.727814
560.039300,-2699.103893,-2833.101958,-9226.723946
560.041870,727.418070,-95.712904,-9054.440718
560.044439,-440.279358,229.710970,-8671.589102
560.047009,-2335.394858,-1263.410333,-8920.442653
560.049578,-2584.248408,133.998066,-8901.300072
560.052148,-2890.529701,-2737.389054,-9054.440718
560.054717,-1014.556782,1033.699363,-8882.157491
560.057287,-1780.260014,-1014.556782,-8901.300072
560.059857,-38.285162,669.990328,-8939.585234
560.062428,-650.847747,-1014.556782,-9226.723946
560.064999,-1091.127106,-1512.263883,-8824.729749
560.067571,-1665.404530,-669.990328,-8920.442653
560.070142,-899.701298,880.558717,-8997.012976
560.072713,-76.570323,1435.693560,-9092.725880
560.075285,-1378.265818,1148.554848,-9131.011042
560.077856,191.425808,133.998066,-9169.296203
560.080427,803.988394,823.130974,-9150.153622
560.082999,1416.550979,-669.990328,-9303.294269
560.085570,1033.699363,1186.840010,-9016.155557
560.088141,-478.564520,267.996131,-9016.155557
560.090713,-1493.121302,631.705166,-9054.440718
560.093284,-861.416136,516.849682,-9207.581365
560.095855,-306.281293,899.701298,-9169.296203
560.098427,-957.129040,1971.685822,-9226.723946
560.100998,19.142581,612.562586,-9111.868461
560.103569,-612.562586,-325.423874,-9245.866526
560.106141,-727.418070,-363.709035,-8786.444587
560.108712,38.285162,401.994197,-8843.872330
560.111283,-191.425808,1512.263883,-9475.577496
560.113855,535.992262,1799.402595,-9169.296203
560.116426,325.423874,-650.847747,-9111.868461
560.118997,1397.408398,861.416136,-9073.583299
560.121569,689.132909,0.000000,-9131.011042
560.124140,0.000000,631.705166,-9092.725880
560.126711,-440.279358,1339.980656,-9131.011042
560.129283,-650.847747,995.414202,-9073.583299
560.131854,-612.562586,1416.550979,-9284.151688
560.134425,38.285162,382.851616,-9111.868461
560.136997,-727.418070,-1148.554848,-9092.725880
560.139568,382.851616,689.132909,-9054.440718
560.142139,-2009.970984,-1512.263883,-9035.298138
560.144711,-861.416136,114.855485,-8882.157491
560.147282,-3694.518094,-1454.836141,-8958.727814
560.149853,-2124.826469,421.136778,-8939.585234
560.152425,-2373.680019,-478.564520,-9035.298138
560.154996,-1263.410333,191.425808,-9016.155557
560.157567,-803.988394,-1091.127106,-9035.298138
560.160139,-421.136778,-1033.699363,-9092.725880
560.162710,-497.707101,-669.990328,-8997.012976
560.165283,-2105.683888,248.853550,-8920.442653
560.167856,-3062.812928,1320.838075,-9111.868461
560.170429,-2699.103893,-1722.832272,-8920.442653
560.173002,1435.693560,133.998066,-9073.583299
560.175575,-2009.970984,497.707101,-9245.866526
560.178148,-2622.533570,-2029.113565,-8920.442653
560.180721,-1761.117434,38.285162,-8729.016845
560.183294,-2947.957443,-2411.965181,-8901.300072
560.185867,-650.847747,344.566454,-8901.300072
560.188440,-3464.807125,-1052.841944,-9035.298138
560.191013,-2316.252277,-842.273555,-8997.012976
560.193586,-1301.695494,823.130974,-9073.583299
560.196159,153.140646,-459.421939,-9169.296203
560.198732,-937.986459,-1493.121302,-8863.014910
560.201305,-1473.978722,-1914.258080,-8901.300072
560.203878,-976.271621,1359.123237,-8939.585234
560.206451,-1684.547110,1359.123237,-9150.153622
560.209024,-803.988394,555.134843,-9092.725880
560.211597,631.705166,1205.982590,-9054.440718
560.214170,650.847747,-497.707101,-9054.440718
560.216743,1339.980656,995.414202,-9169.296203
560.219316,229.710970,133.998066,-9245.866526
560.221889,191.425808,746.560651,-9016.155557
560.224462,-516.849682,248.853550,-8863.014910
560.227035,-880.558717,1129.412267,-9016.155557
560.229608,-957.129040,861.416136,-9131.011042
560.232181,-19.142581,0.000000,-8997.012976
560.234754,-650.847747,1110.269686,-9284.151688
560.237327,2009.970984,0.000000,-8997.012976
560.239900,823.130974,363.709035,-8709.874264
560.242473,631.705166,95.712904,-8709.874264
560.245046,-1033.699363,1473.978722,-9265.009107
560.247619,267.996131,1148.554848,-9303.294269
560.250192,746.560651,363.709035,-9131.011042
560.252765,1512.263883,765.703232,-9016.155557
560.255338,555.134843,267.996131,-9169.296203
560.257911,-727.418070,-267.996131,-9054.440718
560.260484,-248.853550,803.988394,-9150.153622
560.263057,-229.710970,1320.838075,-9111.868461
560.265630,-229.710970,1339.980656,-9150.153622
560.268204,-57.427742,593.420005,-9035.298138
560.270778,-1225.125171,-1703.689691,-9035.298138
560.273351,574.277424,765.703232,-9111.868461
560.275925,-1703.689691,-1799.402595,-8901.300072
560.278499,-1225.125171,-344.566454,-8824.729749
560.281072,-3215.953574,-478.564520,-8901.300072
560.283646,-2775.674216,-535.992262,-9073.583299
560.286219,-1148.554848,133.998066,-8997.012976
560.288793,-1435.693560,-440.279358,-8977.870395
560.291367,-555.134843,-669.990328,-8939.585234
560.293940,-593.420005,-1225.125171,-9111.868461
560.296514,-803.988394,-995.414202,-8920.442653
560.299088,-2182.254211,-153.140646,-8977.870395
560.301661,-1359.123237,1799.402595,-8920.442653
560.304235,-4881.358104,-880.558717,-9188.438784
560.306809,708.275490,-2641.676150,-8882.157491
560.309382,2029.113565,-287.138712,-8920.442653
560.311956,-2852.244539,-612.562586,-8958.727814
560.314530,-1856.830338,76.570323,-8690.731683
560.317103,-3503.092286,57.427742,-9016.155557
560.319677,-2335.394858,-631.705166,-9131.011042
560.322250,-957.129040,-153.140646,-8824.729749
560.324824,-2373.680019,-995.414202,-8958.727814
560.327398,-248.853550,689.132909,-9131.011042
560.329971,-708.275490,-1205.982590,-9054.440718
560.332545,-1014.556782,-880.558717,-8901.300072
560.335119,-1569.691626,-248.853550,-8939.585234
560.337692,-669.990328,1167.697429,-9073.583299
560.340266,-95.712904,497.707101,-9150.153622
560.342840,57.427742,1607.976787,-9111.868461
560.345413,-248.853550,-153.140646,-9169.296203
560.347987,1167.697429,1263.410333,-9150.153622
560.350561,1052.841944,-133.998066,-9265.009107
560.353134,1225.125171,382.851616,-9150.153622
560.355708,306.281293,689.132909,-8920.442653
560.358281,-1397.408398,95.712904,-9111.868461
560.360855,-516.849682,1397.408398,-9073.583299
560.363429,-842.273555,229.710970,-9169.296203
560.366002,555.134843,784.845813,-9035.298138
560.368576,1818.545176,-382.851616,-9303.294269
560.371150,401.994197,-57.427742,-8824.729749
560.373725,-1129.412267,1148.554848,-8939.585234
560.376299,-1071.984525,899.701298,-9092.725880
560.378873,459.421939,880.558717,-9571.290400
560.381448,1014.556782,1282.552914,-9092.725880
560.384022,1129.412267,382.851616,-8939.585234
560.386597,363.709035,-440.279358,-8997.012976
560.389171,-57.427742,191.425808,-9245.866526
560.391745,401.994197,1282.552914,-9073.583299
560.394320,-631.705166,1512.263883,-9226.723946
560.396894,114.855485,1301.695494,-9054.440718
560.399468,-38.285162,133.998066,-9092.725880
560.402043,-1014.556782,-1263.410333,-8997.012976
560.404617,210.568389,306.281293,-9035.298138
560.407192,-2067.398726,-1378.265818,-9035.298138
560.409766,-1014.556782,229.710970,-8863.014910
560.412340,-3139.383251,-421.136778,-8901.300072
560.414915,-2871.387120,-478.564520,-9054.440718
560.417489,-823.130974,306.281293,-9054.440718
560.420063,-1359.123237,-421.136778,-8920.442653
560.422638,-555.134843,-1014.556782,-8920.442653
560.425212,-746.560651,-957.129040,-9092.725880
560.427787,-1225.125171,-1722.832272,-8920.442653
560.430361,-1091.127106,153.140646,-8977.870395
560.432935,-287.138712,-57.427742,-8824.729749
560.435510,-3369.094221,976.271621,-9111.868461
560.438084,-2239.681954,-2029.113565,-9226.723946
560.440658,880.558717,19.142581,-9111.868461
560.443233,-899.701298,-1397.408398,-8518.448456
560.445807,-2086.541307,-555.134843,-8748.159426
560.448382,-3273.381317,-784.845813,-9035.298138
560.450956,-1684.547110,229.710970,-9150.153622
560.453530,-1684.547110,95.712904,-8920.442653
560.456105,-918.843878,-440.279358,-8882.157491
560.458679,-612.562586,-287.138712,-8958.727814
560.461253,-1607.976787,-1607.976787,-9073.583299
560.463828,-1435.693560,-823.130974,-8863.014910
560.466402,-1588.834206,-306.281293,-8939.585234
560.468976,-401.994197,1856.830338,-9131.011042
560.471551,-765.703232,248.853550,-9226.723946
560.474125,1071.984525,612.562586,-9150.153622
560.476700,210.568389,57.427742,-9150.153622
560.479275,1416.550979,325.423874,-9169.296203
560.481849,1091.127106,478.564520,-9111.868461
560.484424,440.279358,440.279358,-8939.585234
560.486999,-133.998066,823.130974,-9073.583299
560.489574,-1416.550979,535.992262,-9169.296203
560.492148,-440.279358,1014.556782,-9150.153622
560.494723,-210.568389,-76.570323,-8997.012976
560.497298,1110.269686,2239.681954,-9111.868461
560.499873,-1014.556782,-114.855485,-9245.866526
560.502447,-114.855485,-287.138712,-8901.300072
560.505022,401.994197,248.853550,-8843.872330
560.507597,287.138712,1110.269686,-9265.009107
560.510172,210.568389,1454.836141,-9226.723946
560.512746,344.566454,784.845813,-9169.296203
560.515321,842.273555,114.855485,-9111.868461
560.517896,784.845813,-95.712904,-8958.727814
560.520471,287.138712,669.990328,-9131.011042
560.523045,-363.709035,1550.549045,-9073.583299
560.525620,-306.281293,1416.550979,-9150.153622
560.528195,38.285162,708.275490,-9188.438784
560.530770,-899.701298,-1646.261949,-8997.012976
560.533344,363.709035,497.707101,-8977.870395
560.535919,-1990.828403,-1703.689691,-8997.012976
560.538494,-1091.127106,803.988394,-8882.157491
560.541069,-3541.377448,-2067.398726,-8843.872330
560.543643,-1473.978722,191.425808,-8882.157491
560.546218,-2163.111630,-363.709035,-9131.011042
560.548793,-1473.978722,38.285162,-9054.440718
560.551368,-593.420005,-823.130974,-8958.727814
560.553942,-976.271621,-861.416136,-9035.298138
560.556517,-765.703232,-937.986459,-8997.012976
560.559092,-784.845813,-1359.123237,-8709.874264
560.561667,-899.701298,38.285162,-8843.872330
560.564241,-3541.377448,1225.125171,-9150.153622
560.566816,-1512.263883,-3349.951640,-8958.727814
560.569391,172.283227,76.570323,-9111.868461
560.571966,-1263.410333,-1416.550979,-8671.589102
560.574540,-1301.695494,19.142581,-8729.016845
560.577115,-3828.516160,-1167.697429,-9054.440718
560.579690,-1761.117434,-229.710970,-9207.581365
560.582265,-1588.834206,-210.568389,-8805.587168
560.584840,-918.843878,-918.843878,-9035.298138
560.587414,-803.988394,478.564520,-9054.440718
560.589989,-2641.676150,-2201.396792,-9150.153622
560.592564,-1033.699363,-267.996131,-8863.014910
560.595139,-1473.978722,210.568389,-9035.298138
560.597714,-133.998066,1780.260014,-9169.296203
560.600288,-1244.267752,803.988394,-9131.011042
560.602863,899.701298,401.994197,-9092.725880
560.605438,459.421939,574.277424,-9111.868461
560.608013,861.416136,-459.421939,-9188.438784
560.610588,1454.836141,708.275490,-8997.012976
560.613162,-861.416136,76.570323,-9073.583299
560.615737,210.568389,1627.119368,-8977.870395
560.618312,-1665.404530,57.427742,-9169.296203
560.620887,306.281293,861.416136,-9092.725880
560.623462,-823.130974,574.277424,-9111.868461
560.626036,2048.256146,-2105.683888,-8920.442653
560.628611,5111.069074,1780.260014,-9054.440718
560.631186,-5398.207786,344.566454,-9226.723946
560.633761,516.849682,1110.269686,-8977.870395
560.636336,382.851616,995.414202,-9303.294269
560.638910,1550.549045,-248.853550,-9360.722011
560.641485,689.132909,2009.970984,-8863.014910
560.644060,-689.132909,-1895.115499,-9207.581365
560.646635,1397.408398,2067.398726,-9016.155557
560.649210,-1435.693560,-325.423874,-9131.011042
560.651784,1339.980656,2660.818731,-9226.723946
560.654359,-765.703232,440.279358,-9092.725880
560.656934,382.851616,-344.566454,-9054.440718
560.659509,-1875.972918,-669.990328,-8997.012976
560.662084,153.140646,-1014.556782,-9035.298138
560.664658,-1971.685822,-363.709035,-8882.157491
560.667233,-2660.818731,-2565.105827,-8882.157491
560.669808,-1627.119368,1071.984525,-8767.302006
560.672383,-2967.100024,-1397.408398,-9111.868461
560.674958,-880.558717,593.420005,-9111.868461
560.677532,-918.843878,-727.418070,-9054.440718
560.680108,-612.562586,-1186.840010,-8958.727814
560.682683,-689.132909,-1397.408398,-8863.014910
560.685258,-842.273555,-1435.693560,-8805.587168
560.687833,-344.566454,-95.712904,-8786.444587
560.690408,-2909.672282,1282.552914,-8977.870395
560.692983,-1780.260014,-2526.820666,-9092.725880
560.695559,1301.695494,1339.980656,-8958.727814
560.698134,-4479.363907,-3177.668413,-9188.438784
560.700709,-918.843878,1416.550979,-8729.016845
560.703284,-3962.514226,-2565.105827,-8997.012976
560.705859,-1512.263883,-516.849682,-9131.011042
560.708435,-1990.828403,-76.570323,-8786.444587
560.711010,-1301.695494,-1052.841944,-9188.438784
560.713585,-172.283227,593.420005,-8939.585234
560.716160,-2029.113565,-2603.390989,-8920.442653
560.718735,-1435.693560,0.000000,-8939.585234
560.721311,-1378.265818,133.998066,-9150.153622
560.723886,459.421939,1722.832272,-9169.296203
560.726461,-1263.410333,746.560651,-9245.866526
560.729036,995.414202,497.707101,-9150.153622
560.731611,401.994197,344.566454,-9092.725880
560.734187,1205.982590,-172.283227,-9226.723946
560.736762,803.988394,1416.550979,-9111.868461
560.739337,-784.845813,0.000000,-9054.440718
560.741912,306.281293,1473.978722,-9035.298138
560.744487,-1646.261949,287.138712,-9226.723946
560.747062,306.281293,1780.260014,-9303.294269
560.749638,-574.277424,1282.552914,-9092.725880
560.752213,-2239.681954,57.427742,-9284.151688
560.754788,1033.699363,3024.527766,-9379.864592
560.757363,-2718.246474,1033.699363,-9054.440718
560.759938,1129.412267,-1091.127106,-8882.157491
560.762514,1799.402595,1952.543242,-9245.866526
560.765089,172.283227,-1512.263883,-9265.009107
560.767664,1531.406464,2488.535504,-8939.585234
560.770239,-1033.699363,-708.275490,-9131.011042
560.772814,1359.123237,1320.838075,-9035.298138
560.775390,-440.279358,823.130974,-9111.868461
560.777965,612.562586,1703.689691,-9265.009107
560.780540,-401.994197,612.562586,-9169.296203
560.783115,-1320.838075,-1703.689691,-8997.012976
560.785691,-76.570323,803.988394,-8920.442653
560.788266,-2258.824534,-1856.830338,-8977.870395
560.790841,-957.129040,612.562586,-8882.157491
560.793417,-3790.230998,-2143.969050,-8920.442653
560.795992,-1531.406464,880.558717,-8901.300072
560.798567,-2239.681954,-1129.412267,-9035.298138
560.801143,-669.990328,478.564520,-9092.725880
560.803718,-784.845813,-1148.554848,-9054.440718
560.806293,-842.273555,-727.418070,-8958.727814
560.808869,-1282.552914,-1186.840010,-8920.442653
560.811444,-1722.832272,325.423874,-8997.012976
560.814019,-3292.523898,-287.138712,-8843.872330
560.816595,-976.271621,363.709035,-9131.011042
560.819170,-459.421939,-1799.402595,-9016.155557
560.821745,-1378.265818,-2277.967115,-8709.874264
560.824321,-1588.834206,-650.847747,-8767.302006
560.826896,-3254.238736,-1550.549045,-8748.159426
560.829471,-1244.267752,574.277424,-8863.014910
560.832047,-3005.385186,-1167.697429,-9054.440718
560.834622,-689.132909,535.992262,-8977.870395
560.837197,-1722.832272,-880.558717,-9150.153622
560.839773,-1148.554848,-1646.261949,-8977.870395
560.842348,-1435.693560,-727.418070,-8824.729749
560.844923,-1588.834206,363.709035,-9035.298138
560.847499,-57.427742,1741.974853,-9188.438784
560.850074,-823.130974,344.566454,-9188.438784
560.852649,1339.980656,1378.265818,-9131.011042
560.855225,-76.570323,-421.136778,-9188.438784
560.857800,1761.117434,861.416136,-9111.868461
560.860375,401.994197,1205.982590,-9035.298138
560.862951,-38.285162,-76.570323,-9016.155557
560.865526,-76.570323,1416.550979,-8997.012976
560.868101,-1320.838075,-191.425808,-9265.009107
560.870677,57.427742,2316.252277,-9188.438784
560.873252,-918.843878,-76.570323,-9111.868461
560.875827,-440.279358,1875.972918,-9111.868461
560.878403,-1301.695494,-382.851616,-9265.009107
560.880978,-1607.976787,1359.123237,-9150.153622
560.883553,1225.125171,650.847747,-8786.444587
560.886128,459.421939,-631.705166,-9418.149754
560.888703,995.414202,2124.826469,-9265.009107
560.891278,-229.710970,-689.132909,-9150.153622
560.893853,1646.261949,1320.838075,-8901.300072
560.896428,0.000000,114.855485,-8939.585234
560.899003,1186.840010,1627.119368,-9054.440718
560.901578,-669.990328,1129.412267,-9265.009107
560.904152,191.425808,306.281293,-9169.296203
560.906727,-1473.978722,-1397.408398,-8977.870395
560.909302,76.570323,957.129040,-8997.012976
560.911877,-3005.385186,-2067.398726,-9073.583299
560.914452,-1091.127106,823.130974,-8997.012976
560.917027,-3771.088418,-2450.250342,-8997.012976
560.919602,-2029.113565,-95.712904,-8958.727814
560.922177,-1665.404530,-210.568389,-8997.012976
560.924752,-918.843878,19.142581,-9111.868461
560.927327,-555.134843,-689.132909,-8977.870395
560.929901,-1148.554848,-1588.834206,-8901.300072
560.932476,-823.130974,-1493.121302,-8920.442653
560.935051,-842.273555,-669.990328,-8805.587168
560.937626,-325.423874,1818.545176,-8863.014910
560.940201,-2335.394858,-784.845813,-9284.151688
560.942776,-1703.689691,-76.570323,-9341.579430
560.945351,-1856.830338,-1703.689691,-9016.155557
560.947926,-1129.412267,-708.275490,-8633.303941
560.950501,-3101.098090,-957.129040,-8767.302006
560.953076,-2890.529701,325.423874,-9092.725880
560.955651,-2124.826469,-689.132909,-8901.300072
560.958225,-823.130974,0.000000,-9169.296203
560.960800,-976.271621,-1703.689691,-8958.727814
560.963375,-1263.410333,-1091.127106,-8901.300072
560.965950,-1722.832272,-631.705166,-8843.872330
560.968525,-555.134843,1378.265818,-8977.870395
560.971100,229.710970,861.416136,-9245.866526
560.973675,-344.566454,1339.980656,-9188.438784
560.976250,0.000000,-114.855485,-9207.581365
560.978825,1129.412267,1091.127106,-9169.296203
560.981400,440.279358,306.281293,-9131.011042
560.983974,784.845813,497.707101,-8920.442653
560.986549,-1014.556782,459.421939,-8977.870395
560.989124,-95.712904,401.994197,-9169.296203
560.991699,-478.564520,612.562586,-9092.725880
560.994274,-784.845813,1780.260014,-9399.007173
560.996848,325.423874,2297.109696,-8997.012976
560.999423,-1665.404530,-823.130974,-9341.579430
561.001998,2316.252277,1607.976787,-8824.729749
561.004572,-1741.974853,344.566454,-8920.442653
561.007147,478.564520,1339.980656,-9456.434915
561.009722,-76.570323,1167.697429,-9303.294269
561.012297,1799.402595,-210.568389,-9150.153622
561.014871,2086.541307,1990.828403,-8805.587168
561.017446,-650.847747,-516.849682,-8977.870395
561.020021,765.703232,2526.820666,-9265.009107
561.022596,-248.853550,478.564520,-9131.011042
561.025170,1033.699363,1110.269686,-9131.011042
561.027745,-1167.697429,-1129.412267,-9092.725880
561.030320,-803.988394,191.425808,-8958.727814
561.032895,-1722.832272,-1646.261949,-8958.727814
561.035469,-1110.269686,880.558717,-8863.014910
561.038044,-3905.086483,-2220.539373,-8958.727814
561.040619,-1244.267752,172.283227,-8901.300072
561.043193,-1875.972918,-669.990328,-9054.440718
561.045768,-1091.127106,191.425808,-9035.298138
561.048343,-784.845813,-784.845813,-9073.583299
561.050918,-784.845813,-1263.410333,-8958.727814
561.053492,-631.705166,-248.853550,-9016.155557
561.056067,-3196.810994,57.427742,-9131.011042
561.058642,-957.129040,-1244.267752,-8958.727814
561.061217,-2699.103893,1205.982590,-9169.296203
561.063791,-421.136778,-3101.098090,-9150.153622
561.066366,459.421939,440.279358,-8652.446522
561.068941,-3235.096155,-3235.096155,-8843.872330
561.071515,-1244.267752,1914.258080,-8767.302006
561.074089,-4039.084549,-1244.267752,-8920.442653
561.076663,-823.130974,133.998066,-9131.011042
561.079237,-1856.830338,-210.568389,-8997.012976
561.081811,-1129.412267,-1933.400661,-9111.868461
561.084385,-1933.400661,-1071.984525,-8748.159426
561.086960,-1052.841944,-976.271621,-8977.870395
561.089534,-1110.269686,2067.398726,-9016.155557
561.092108,19.142581,-612.562586,-9188.438784
561.094682,1627.119368,2239.681954,-9245.866526
561.097256,-612.562586,-765.703232,-9226.723946
561.099830,2469.392923,1607.976787,-9169.296203
561.102404,-516.849682,784.845813,-9188.438784
561.104978,612.562586,1091.127106,-8977.870395
561.107552,-784.845813,-57.427742,-8958.727814
561.110127,267.996131,325.423874,-9188.438784
561.112701,440.279358,631.705166,-8977.870395
561.115275,-1397.408398,937.986459,-9360.722011
561.117849,2277.967115,1033.699363,-8901.300072
561.120423,-76.570323,-1167.697429,-8901.300072
561.122997,306.281293,-153.140646,-8863.014910
561.125571,-1110.269686,2297.109696,-9265.009107
561.128145,555.134843,401.994197,-9360.722011
561.130719,1703.689691,1473.978722,-9207.581365
561.133293,191.425808,-1225.125171,-8997.012976
561.135868,1339.980656,842.273555,-8997.012976
561.138442,-765.703232,612.562586,-9150.153622
561.141016,1091.127106,1895.115499,-9284.151688
561.143590,-19.142581,382.851616,-8977.870395
561.146164,555.134843,114.855485,-9188.438784
561.148738,-1550.549045,-1225.125171,-8939.585234
561.151312,-210.568389,114.855485,-8997.012976
561.153886,-2622.533570,-133.998066,-8843.872330
561.156460,-1933.400661,-1416.550979,-8958.727814
561.159035,-1933.400661,191.425808,-8767.302006
561.161609,-2967.100024,-765.703232,-9092.725880
561.164183,-574.277424,-95.712904,-9035.298138
561.166757,-1148.554848,-612.562586,-9092.725880
561.169331,-325.423874,-612.562586,-8977.870395
561.171905,-1435.693560,-1378.265818,-8767.302006
561.174479,-2488.535504,-401.994197,-9265.009107
561.177052,-1512.263883,-555.134843,-8786.444587
561.179626,76.570323,459.421939,-8843.872330
561.182200,-2163.111630,172.283227,-9265.009107
561.184773,-1818.545176,-1531.406464,-8977.870395
561.187347,-2105.683888,-1071.984525,-8786.444587
561.189921,-1818.545176,-516.849682,-8595.018779
561.192494,-1588.834206,363.709035,-8882.157491
561.195068,-3158.525832,-861.416136,-9188.438784
561.197642,-1244.267752,-267.996131,-9150.153622
561.200215,-1167.697429,-1225.125171,-8939.585234
561.202789,-1359.123237,-1378.265818,-8958.727814
561.205362,-2009.970984,-803.988394,-8767.302006
561.207936,-267.996131,1263.410333,-9150.153622
561.210510,229.710970,937.986459,-9188.438784
561.213083,689.132909,1263.410333,-9111.868461
561.215657,133.998066,-248.853550,-9150.153622
561.218231,1205.982590,1033.699363,-9188.438784
561.220804,631.705166,689.132909,-9188.438784
561.223378,612.562586,1129.412267,-9016.155557
561.225952,-746.560651,-344.566454,-8939.585234
561.228525,-153.140646,746.560651,-9150.153622
561.231099,-631.705166,842.273555,-9226.723946
561.233672,-842.273555,1722.832272,-9322.436850
561.236246,-2163.111630,421.136778,-9054.440718
561.238820,4555.934230,1339.980656,-8997.012976
561.241393,-3254.238736,1205.982590,-9207.581365
561.243967,-1148.554848,133.998066,-9092.725880
561.246541,1052.841944,1493.121302,-9207.581365
561.249114,-76.570323,-3062.812928,-9437.292334
561.251688,3617.947771,2086.541307,-8939.585234
561.254262,-1761.117434,-172.283227,-9016.155557
561.256835,842.273555,1895.115499,-9016.155557
561.259409,-76.570323,1244.267752,-9131.011042
561.261983,1129.412267,574.277424,-9207.581365
561.264556,-114.855485,-57.427742,-8958.727814
561.267130,-1493.121302,-1569.691626,-9054.440718
561.269703,-459.421939,-765.703232,-8843.872330
561.272277,-2488.535504,172.283227,-8920.442653
561.274851,-2067.398726,-1665.404530,-8882.157491
561.277424,-2067.398726,574.277424,-8824.729749
561.279997,-2526.820666,-1799.402595,-9092.725880
561.282571,-957.129040,344.566454,-9035.298138
561.285144,-535.992262,-861.416136,-9073.583299
561.287717,-229.710970,-689.132909,-8843.872330
561.290291,-1397.408398,-1033.699363,-8939.585234
561.292864,-669.990328,-1282.552914,-8901.300072
561.295438,-3101.098090,478.564520,-9073.583299
561.298011,-2297.109696,-708.275490,-9131.011042
561.300584,-555.134843,1493.121302,-9169.296203
561.303158,-2507.678085,-2545.963246,-9035.298138
561.305731,-1627.119368,823.130974,-8748.159426
561.308304,-4115.654872,-1875.972918,-8882.157491
561.310878,-1761.117434,555.134843,-9054.440718
561.313451,-2565.105827,-516.849682,-9073.583299
561.316024,-631.705166,248.853550,-9150.153622
561.318598,-2660.818731,-1895.115499,-9016.155557
561.321171,-191.425808,-1301.695494,-8901.300072
561.323744,-1875.972918,306.281293,-8863.014910
561.326318,-172.283227,1512.263883,-9303.294269
561.328891,-248.853550,746.560651,-9169.296203
561.331465,918.843878,593.420005,-8977.870395
561.334038,976.271621,325.423874,-9111.868461
561.336611,669.990328,267.996131,-9226.723946
561.339185,937.986459,918.843878,-9131.011042
561.341758,-650.847747,995.414202,-8997.012976
561.344331,-401.994197,574.277424,-9054.440718
561.346905,-344.566454,95.712904,-9131.011042
561.349478,-669.990328,2086.541307,-9418.149754
561.352051,-1569.691626,746.560651,-9150.153622
561.354625,1569.691626,-325.423874,-8958.727814
561.357198,2603.390989,-38.285162,-8652.446522
561.359771,-1588.834206,344.566454,-8958.727814
561.362345,38.285162,1359.123237,-9188.438784
561.364918,842.273555,1014.556782,-9628.718142
561.367492,1225.125171,-382.851616,-9188.438784
561.370065,1799.402595,1703.689691,-8824.729749
561.372638,-708.275490,-57.427742,-9016.155557
561.375212,1244.267752,2258.824534,-9169.296203
561.377785,-248.853550,133.998066,-9111.868461
561.380357,861.416136,1071.984525,-9188.438784
561.382930,-2239.681954,-1435.693560,-9054.440718
561.385503,-535.992262,-1186.840010,-9073.583299
561.388075,-2756.531635,229.710970,-8824.729749
561.390648,-2143.969050,-1378.265818,-8882.157491
561.393220,-2756.531635,593.420005,-8882.157491
561.395793,-2641.676150,-1952.543242,-9035.298138
561.398365,-210.568389,248.853550,-9054.440718
561.400938,-1186.840010,-976.271621,-9150.153622
561.403510,-210.568389,-38.285162,-8863.014910
561.406083,-1607.976787,-2009.970984,-8767.302006
561.408655,-1129.412267,-1454.836141,-8939.585234
561.411228,1569.691626,842.273555,-8690.731683
561.413800,-5934.200048,-287.138712,-9207.581365
561.416373,-1071.984525,-2603.390989,-9341.579430
561.418946,1205.982590,1703.689691,-8748.159426
561.421518,-3426.521963,-3101.098090,-8863.014910
561.424091,-1167.697429,918.843878,-8441.878133
561.426663,-4881.358104,-2105.683888,-9054.440718
561.429236,-689.132909,612.562586,-9073.583299
561.431808,-1071.984525,-459.421939,-8997.012976
561.434381,-1646.261949,-1914.258080,-8997.012976
561.436953,-2431.107762,-612.562586,-8882.157491
561.439526,-631.705166,-57.427742,-9035.298138
561.442098,-1110.269686,2201.396792,-9035.298138
561.444671,-1301.695494,-765.703232,-9226.723946
561.447243,2163.111630,1703.689691,-9092.725880
561.449816,-57.427742,-727.418070,-9054.440718
561.452388,2124.826469,1071.984525,-9111.868461
561.454961,-344.566454,842.273555,-9207.581365
561.457534,0.000000,1282.552914,-9035.298138
561.460106,-784.845813,727.418070,-8958.727814
561.462679,-1225.125171,-114.855485,-9265.009107
561.465251,1091.127106,-57.427742,-8920.442653
561.467824,880.558717,612.562586,-9303.294269
561.470396,-765.703232,842.273555,-9073.583299
561.472969,38.285162,746.560651,-8939.585234
561.475541,-1205.982590,612.562586,-9054.440718
561.478114,746.560651,1148.554848,-9303.294269
561.480686,995.414202,650.847747,-9207.581365
561.483258,555.134843,-937.986459,-9131.011042
561.485830,1856.830338,823.130974,-8977.870395
561.488402,-76.570323,478.564520,-9054.440718
561.490974,1033.699363,2220.539373,-9265.009107
561.493546,-401.994197,325.423874,-9111.868461
561.496118,555.134843,-267.996131,-8977.870395
561.498690,-1741.974853,-727.418070,-8977.870395
561.501262,-555.134843,-1014.556782,-8939.585234
561.503833,-1722.832272,612.562586,-8843.872330
561.506405,-3522.234867,-2258.824534,-8863.014910
561.508977,-899.701298,708.275490,-8805.587168
561.511549,-2679.961312,-1761.117434,-9035.298138
561.514121,-248.853550,478.564520,-9054.440718
561.516693,-1167.697429,-1339.980656,-9092.725880
561.519265,-57.427742,-421.136778,-8863.014910
561.521837,-1071.984525,-2258.824534,-8595.018779
561.524409,-459.421939,-918.843878,-8997.012976
561.526981,-2143.969050,1722.832272,-9035.298138
561.529552,-3847.658741,-1033.699363,-9418.149754
561.532124,-19.142581,-1091.127106,-8997.012976
561.534696,-2220.539373,-784.845813,-9035.298138
561.537268,-2009.970984,-555.134843,-8652.446522
561.539840,-3388.236802,-669.990328,-8786.444587
561.542412,-3483.949706,-1225.125171,-9341.579430
561.544984,-861.416136,440.279358,-8901.300072
561.547556,-2163.111630,-2335.394858,-8958.727814
561.550128,-727.418070,-287.138712,-8920.442653
561.552700,-2124.826469,-1225.125171,-8958.727814
561.555271,38.285162,2048.256146,-9111.868461
561.557843,229.710970,-612.562586,-9169.296203
561.560415,1646.261949,2679.961312,-9054.440718
561.562987,-535.992262,-1186.840010,-9111.868461
561.565559,2067.398726,1435.693560,-9092.725880
561.568131,0.000000,0.000000,-9169.296203
561.570703,784.845813,2277.967115,-8997.012976
561.573275,-937.986459,-363.709035,-8958.727814
561.575847,-421.136778,497.707101,-9150.153622
561.578419,-325.423874,-497.707101,-9016.155557
561.580991,823.130974,-1914.258080,-8958.727814
561.583562,2182.254211,3847.658741,-9131.011042
561.586111,-4077.369710,-1148.554848,-9073.583299
561.588660,2565.105827,1684.547110,-8843.872330
561.591208,-708.275490,-325.423874,-9150.153622
561.593757,2373.680019,1071.984525,-9418.149754
561.596306,-306.281293,248.853550,-9265.009107
561.598854,1282.552914,-1646.261949,-9131.011042
561.601403,1703.689691,2794.816797,-8901.300072
561.603952,-344.566454,-76.570323,-9245.866526
561.606500,1454.836141,2067.398726,-9131.011042
561.609049,-1186.840010,-2220.539373,-9111.868461
561.611598,-287.138712,-38.285162,-8958.727814
561.614146,-1856.830338,-1875.972918,-9035.298138
561.616695,-1703.689691,918.843878,-8843.872330
561.619244,-3713.660675,-2392.822600,-8767.302006
561.621792,-899.701298,1167.697429,-8882.157491
561.624341,-2488.535504,-2411.965181,-9073.583299
561.626890,-497.707101,631.705166,-9016.155557
561.629438,-1301.695494,-1244.267752,-9111.868461
561.631987,-76.570323,76.570323,-8863.014910
561.634535,-1378.265818,-1110.269686,-8805.587168
561.637084,-2201.396792,-2316.252277,-8958.727814
561.639633,-191.425808,95.712904,-8977.870395
561.642181,-1780.260014,-1339.980656,-9150.153622
561.644730,95.712904,-937.986459,-9016.155557
561.647279,-1952.543242,-478.564520,-8595.018779
561.649827,-2584.248408,-1263.410333,-8920.442653
561.652376,-2603.390989,-459.421939,-8786.444587
561.654925,-2354.537438,-784.845813,-9092.725880
561.657473,-344.566454,612.562586,-8997.012976
561.660022,-3254.238736,-2622.533570,-8901.300072
561.662571,-497.707101,-95.712904,-8939.585234
561.665119,-2469.392923,-459.421939,-8997.012976
561.667668,612.562586,2679.961312,-9245.866526
561.670217,-918.843878,-765.703232,-9226.723946
561.672765,2220.539373,2411.965181,-9073.583299
561.675314,-172.283227,-823.130974,-9111.868461
561.677863,1071.984525,669.990328,-9131.011042
561.680411,880.558717,918.843878,-9092.725880
561.682960,-363.709035,784.845813,-9016.155557
561.685508,-574.277424,727.418070,-8997.012976
561.688060,-995.414202,612.562586,-9226.723946
561.690612,191.425808,57.427742,-9150.153622
561.693163,-421.136778,2220.539373,-9111.868461
561.695715,-1359.123237,1225.125171,-9035.298138
561.698267,-1263.410333,1244.267752,-9226.723946
561.700818,995.414202,535.992262,-8824.729749
561.703370,401.994197,-784.845813,-9341.579430
561.705921,1473.978722,2411.965181,-9265.009107
561.708473,-344.566454,-459.421939,-9379.864592
561.711025,2009.970984,1186.840010,-8939.585234
561.713576,421.136778,1244.267752,-9035.298138
561.716128,880.558717,191.425808,-9188.438784
561.718679,478.564520,1320.838075,-9092.725880
561.721231,-2086.541307,-1933.400661,-9131.011042
561.723783,-1014.556782,421.136778,-9054.440718
561.726334,-2622.533570,-1473.978722,-9035.298138
561.728886,-1148.554848,478.564520,-8805.587168
561.731438,-4039.084549,-1512.263883,-8901.300072
561.733989,-2220.539373,-1550.549045,-9111.868461
561.736541,-1186.840010,38.285162,-9188.438784
561.739092,-612.562586,-1607.976787,-8997.012976
561.741644,19.142581,555.134843,-8920.442653
561.744196,-1684.547110,-1646.261949,-8824.729749
561.746747,-2239.681954,-363.709035,-8958.727814
561.749299,-842.273555,-1684.547110,-8824.729749
561.751851,-1818.545176,1416.550979,-9073.583299
561.754402,-3292.523898,-3828.516160,-9169.296203
561.756954,248.853550,1550.549045,-8863.014910
561.759505,-3656.232933,-2258.824534,-8690.731683
561.762057,-1167.697429,669.990328,-8614.161360
561.764609,-3885.943902,-1665.404530,-8997.012976
561.767160,-861.416136,363.709035,-9303.294269
561.769712,-2009.970984,-1952.543242,-8882.157491
561.772263,-1205.982590,-976.271621,-8901.300072
561.774815,-1646.261949,306.281293,-8882.157491
561.777367,-516.849682,1493.121302,-9131.011042
561.779918,459.421939,210.568389,-9226.723946
561.782470,1091.127106,1761.117434,-9016.155557
561.785022,593.420005,-976.271621,-9169.296203
561.787573,823.130974,1454.836141,-9092.725880
561.790128,401.994197,861.416136,-9226.723946
561.792682,574.277424,1627.119368,-8997.012976
561.795236,-1052.841944,-306.281293,-8977.870395
561.797791,-401.994197,325.423874,-9150.153622
561.800345,-267.996131,-382.851616,-8958.727814
561.802899,1607.976787,1014.556782,-9226.723946
561.805454,-612.562586,842.273555,-8939.585234
561.808008,-267.996131,1569.691626,-9092.725880
561.810562,-535.992262,1933.400661,-9284.151688
561.813117,459.421939,593.420005,-9284.151688
561.815671,1933.400661,1091.127106,-9418.149754
561.818226,440.279358,248.853550,-9188.438784
561.820780,1071.984525,669.990328,-8939.585234
561.823334,995.414202,1244.267752,-9073.583299
561.825889,803.988394,1225.125171,-9188.438784
561.828443,325.423874,382.851616,-9150.153622
561.830997,-2029.113565,-1052.841944,-8997.012976
561.833552,-669.990328,-784.845813,-9035.298138
561.836106,-2469.392923,-344.566454,-8805.587168
561.838660,-1837.687757,-478.564520,-8901.300072
561.841215,-3656.232933,-382.851616,-8977.870395
561.843769,-1933.400661,-937.986459,-9035.298138
561.846324,-1014.556782,-114.855485,-9054.440718
561.848878,-957.129040,-1339.980656,-9111.868461
561.851432,133.998066,325.423874,-8997.012976
561.853987,-1339.980656,-2507.678085,-8824.729749
561.856541,-248.853550,-612.562586,-8843.872330
561.859095,-2641.676150,899.701298,-9035.298138
561.861650,-3024.527766,-3924.229064,-9054.440718
561.864204,1263.410333,2124.826469,-9284.151688
561.866759,-2679.961312,-1933.400661,-8824.729749
561.869313,-2201.396792,-95.712904,-8614.161360
561.871867,-3062.812928,-1033.699363,-8767.302006
561.874422,-2258.824534,-1263.410333,-9169.296203
561.876976,-440.279358,823.130974,-9016.155557
561.879530,-3426.521963,-3081.955509,-8958.727814
561.882085,-1052.841944,172.283227,-8748.159426
561.884639,-2239.681954,-248.853550,-9111.868461
561.887193,229.710970,2201.396792,-9245.866526
561.889748,-1071.984525,19.142581,-9265.009107
561.892304,1952.543242,612.562586,-9188.438784
561.894860,382.851616,287.138712,-9035.298138
561.897417,1397.408398,765.703232,-9073.583299
561.899973,593.420005,1301.695494,-9150.153622
561.902529,-287.138712,765.703232,-9092.725880
561.905086,-478.564520,612.562586,-8901.300072
561.907642,-1416.550979,153.140646,-9054.440718
561.910198,1129.412267,-689.132909,-9073.583299
561.912754,784.845813,2009.970984,-9188.438784
561.915311,95.712904,1416.550979,-9073.583299
561.917867,-1761.117434,1186.840010,-8882.157491
561.920423,-918.843878,57.427742,-9322.436850
561.922980,861.416136,1186.840010,-9341.579430
561.925536,1454.836141,-325.423874,-9303.294269
561.928092,1761.117434,1569.691626,-9188.438784
561.930648,-153.140646,555.134843,-9035.298138
561.933205,1569.691626,2009.970984,-9207.581365
561.935761,-38.285162,229.710970,-9150.153622
561.938317,746.560651,-918.843878,-8901.300072
561.940874,-1454.836141,-363.709035,-8958.727814
561.943430,-1033.699363,-957.129040,-8901.300072
561.945986,-2565.105827,669.990328,-8805.587168
561.948543,-4058.227130,-2507.678085,-8882.157491
561.951099,-1148.554848,689.132909,-8920.442653
561.953655,-2737.389054,-2067.398726,-9054.440718
561.956211,363.709035,153.140646,-8977.870395
561.958768,-1588.834206,-880.558717,-9111.868461
561.961324,-344.566454,38.285162,-9016.155557
561.963880,-191.425808,-1895.115499,-8595.018779
561.966437,1684.547110,0.000000,-8671.589102
561.968993,-4651.647134,1780.260014,-8958.727814
561.971549,-4747.360038,-4134.797453,-9571.290400
561.974105,1914.258080,2871.387120,-9016.155557
561.976662,-3349.951640,-3809.373579,-8901.300072
561.979218,-1818.545176,937.986459,-8518.448456
561.981774,-5283.352301,-1837.687757,-9150.153622
561.984331,421.136778,899.701298,-9399.007173
561.986887,-1588.834206,-1148.554848,-8786.444587
561.989443,-1205.982590,-2105.683888,-8863.014910
561.992000,-2335.394858,1416.550979,-8901.300072
561.994558,-210.568389,516.849682,-9226.723946
561.997116,1091.127106,1454.836141,-9169.296203
561.999674,880.558717,248.853550,-9188.438784
562.002232,823.130974,153.140646,-9131.011042
562.004791,210.568389,689.132909,-9092.725880
562.007349,823.130974,2067.398726,-9150.153622
562.009907,-133.998066,650.847747,-8939.585234
562.012465,57.427742,-19.142581,-8882.157491
562.015023,-1205.982590,-746.560651,-8958.727814
562.017582,-803.988394,1282.552914,-9303.294269
562.020140,1339.980656,574.277424,-9150.153622
562.022698,344.566454,172.283227,-9054.440718
562.025256,-1282.552914,95.712904,-9073.583299
562.027814,823.130974,1952.543242,-8939.585234
562.030373,-19.142581,-1205.982590,-9360.722011
562.032931,1875.972918,1473.978722,-9360.722011
562.035489,746.560651,823.130974,-9188.438784
562.038047,1416.550979,1167.697429,-8920.442653
562.040605,516.849682,1320.838075,-9150.153622
562.043164,344.566454,-267.996131,-9303.294269
562.045722,-287.138712,-210.568389,-9054.440718
562.048280,-1359.123237,-976.271621,-8997.012976
562.050838,-1473.978722,-803.988394,-8863.014910
562.053396,-2775.674216,459.421939,-8786.444587
562.055955,-3120.240670,-2009.970984,-8843.872330
562.058513,-1569.691626,459.421939,-8882.157491
562.061071,-2335.394858,-2354.537438,-9054.440718
562.063629,497.707101,153.140646,-8939.585234
562.066187,-1129.412267,-784.845813,-9111.868461
562.068746,-784.845813,363.709035,-9054.440718
562.071304,-823.130974,114.855485,-8824.729749
562.073862,-4039.084549,-1397.408398,-9150.153622
562.076420,-689.132909,-1914.258080,-8863.014910
562.078978,708.275490,593.420005,-9073.583299
562.081537,-1895.115499,-1263.410333,-8786.444587
562.084095,-2392.822600,-708.275490,-8882.157491
562.086653,-3445.664544,-1473.978722,-8709.874264
562.089211,-1205.982590,-57.427742,-8901.300072
562.091769,-861.416136,-344.566454,-8977.870395
562.094328,-3196.810994,-2794.816797,-9016.155557
562.096888,-1531.406464,153.140646,-8805.587168
562.099448,-1895.115499,-267.996131,-9073.583299
562.102008,803.988394,2641.676150,-9169.296203
562.104568,-1014.556782,-516.849682,-9207.581365
562.107128,2105.683888,746.560651,-9245.866526
562.109688,421.136778,-133.998066,-9092.725880
562.112248,1454.836141,1646.261949,-9073.583299
562.114808,57.427742,1320.838075,-9131.011042
562.117368,-344.566454,1014.556782,-9092.725880
562.119928,-133.998066,401.994197,-9035.298138
562.122488,-937.986459,-957.129040,-8958.727814
562.125048,191.425808,-880.558717,-9092.725880
562.127608,1703.689691,2029.113565,-8997.012976
562.130168,593.420005,-650.847747,-9016.155557
562.132728,440.279358,2469.392923,-8939.585234
562.135288,-1071.984525,-1512.263883,-9111.868461
562.137848,2048.256146,765.703232,-9437.292334
562.140408,1148.554848,899.701298,-9245.866526
562.142968,803.988394,708.275490,-9054.440718
562.145528,1512.263883,2373.680019,-8863.014910
562.148088,1033.699363,133.998066,-9245.866526
562.150648,631.705166,0.000000,-9188.438784
562.153208,-1875.972918,-1933.400661,-9169.296203
562.155768,-555.134843,191.425808,-8920.442653
562.158329,-3388.236802,-172.283227,-8843.872330
562.160889,-1665.404530,-382.851616,-8767.302006
562.163449,-3483.949706,-669.990328,-8843.872330
562.166009,-2143.969050,-1244.267752,-9169.296203
562.168569,-1129.412267,-19.142581,-9150.153622
562.171129,-593.420005,-1741.974853,-9111.868461
562.173689,191.425808,191.425808,-8786.444587
562.176249,-1856.830338,-344.566454,-9092.725880
562.178809,-2335.394858,497.707101,-9092.725880
562.181369,-2852.244539,-191.425808,-9169.296203
562.183929,-1301.695494,-153.140646,-9207.581365
562.186489,-114.855485,-1493.121302,-8805.587168
562.189049,-2105.683888,-1435.693560,-8729.016845
562.191609,-3503.092286,-612.562586,-8690.731683
562.194169,-2392.822600,0.000000,-8882.157491
562.196729,-2258.824534,-325.423874,-9226.723946
562.199290,-2297.109696,-2009.970984,-8997.012976
562.201851,-1493.121302,-1244.267752,-8729.016845
562.204412,-2354.537438,-114.855485,-8997.012976
562.206974,191.425808,1646.261949,-9111.868461
562.209535,1129.412267,459.421939,-9169.296203
562.212096,1282.552914,1416.550979,-9150.153622
562.214657,306.281293,-287.138712,-9169.296203
562.217218,976.271621,842.273555,-9111.868461
562.219779,267.996131,1435.693560,-9131.011042
562.222340,-172.283227,1665.404530,-9092.725880
562.224901,-880.558717,612.562586,-8939.585234
562.227463,-1416.550979,-631.705166,-8958.727814
562.230024,-1493.121302,880.558717,-9399.007173
562.232585,1282.552914,918.843878,-9092.725880
562.235146,593.420005,1301.695494,-9054.440718
562.237707,-2067.398726,-497.707101,-8709.874264
562.240268,306.281293,937.986459,-9188.438784
562.242829,-57.427742,-95.712904,-9341.579430
562.245390,2411.965181,1244.267752,-9322.436850
562.247952,516.849682,1014.556782,-9111.868461
562.250513,1186.840010,1780.260014,-9169.296203
562.253074,1205.982590,1761.117434,-8977.870395
562.255635,-363.709035,-1359.123237,-9207.581365
562.258196,-363.709035,-459.421939,-8882.157491
562.260757,-2258.824534,-899.701298,-9188.438784
562.263318,-2392.822600,287.138712,-8901.300072
562.265880,-2469.392923,-612.562586,-8805.587168
562.268441,-3215.953574,-918.843878,-8805.587168
562.271002,-1933.400661,-1071.984525,-8939.585234
562.273563,-1378.265818,-842.273555,-9111.868461
562.276124,-823.130974,-1780.260014,-9073.583299
562.278685,248.853550,95.712904,-8882.157491
562.281246,-2182.254211,-574.277424,-9226.723946
562.283807,-1148.554848,-1761.117434,-8863.014910
562.286369,95.712904,-325.423874,-8709.874264
562.288930,-1703.689691,-459.421939,-8977.870395
562.291491,-2584.248408,-976.271621,-9245.866526
562.294052,-2163.111630,-784.845813,-8595.018779
562.296613,-3024.527766,-708.275490,-8805.587168
562.299174,-995.414202,38.285162,-8805.587168
562.301736,-2354.537438,-440.279358,-9111.868461
562.304299,-3598.805190,-2718.246474,-9150.153622
562.306861,-1550.549045,-133.998066,-8824.729749
562.309423,-1780.260014,-612.562586,-8824.729749
562.311986,267.996131,3330.809059,-9131.011042
562.314548,-440.279358,-803.988394,-9245.866526
562.317110,2182.254211,1129.412267,-9169.296203
562.319672,440.279358,-363.709035,-9150.153622
562.322235,1454.836141,1397.408398,-9035.298138
562.324797,57.427742,1550.549045,-9111.868461
562.327359,-267.996131,1971.685822,-9169.296203
562.329922,-1167.697429,593.420005,-8977.870395
562.332484,-1799.402595,114.855485,-9150.153622
562.335046,-1397.408398,-229.710970,-9245.866526
562.337608,2316.252277,1933.400661,-9073.583299
562.340171,-363.709035,497.707101,-9188.438784
562.342733,823.130974,1339.980656,-8748.159426
562.345295,-478.564520,-823.130974,-9054.440718
562.347858,1435.693560,57.427742,-9341.579430
562.350420,1244.267752,823.130974,-9322.436850
562.352982,727.418070,784.845813,-8997.012976
562.355544,1531.406464,2641.676150,-9016.155557
562.358107,382.851616,-344.566454,-9054.440718
562.360669,516.849682,-669.990328,-9169.296203
562.363231,-1454.836141,-1473.978722,-9016.155557
562.365794,-1129.412267,-363.709035,-8997.012976
562.368356,-3426.521963,535.992262,-8863.014910
562.370918,-3541.377448,-1856.830338,-8805.587168
562.373480,-1799.402595,76.570323,-8882.157491
562.376043,-2584.248408,-1990.828403,-9092.725880
562.378605,-19.142581,191.425808,-9111.868461
562.381167,-823.130974,-880.558717,-9073.583299
562.383730,191.425808,-612.562586,-8843.872330
562.386293,-1933.400661,-2450.250342,-8901.300072
562.388856,0.000000,918.843878,-8786.444587
562.391419,-1071.984525,-918.843878,-8958.727814
562.393982,-689.132909,287.138712,-9265.009107
562.396545,-2220.539373,-1512.263883,-8767.302006
562.399107,-2277.967115,-1110.269686,-8671.589102
562.401670,-2928.814862,-669.990328,-8729.016845
562.404233,-1990.828403,306.281293,-9111.868461
562.406796,-2411.965181,-1225.125171,-9188.438784
562.409359,-2239.681954,-1665.404530,-8901.300072
562.411922,-2239.681954,-669.990328,-8824.729749
562.414485,19.142581,1607.976787,-9150.153622
562.417047,1014.556782,1167.697429,-9188.438784
562.419610,1416.550979,1244.267752,-9092.725880
562.422173,191.425808,-114.855485,-9265.009107
562.424736,1091.127106,842.273555,-9131.011042
562.427299,459.421939,784.845813,-9092.725880
562.429862,-191.425808,1397.408398,-9169.296203
562.432425,-669.990328,1320.838075,-9188.438784
562.434988,-1895.115499,-133.998066,-9073.583299
562.437550,-765.703232,803.988394,-9207.581365
562.440113,-57.427742,-133.998066,-9188.438784
562.442676,1129.412267,2852.244539,-9169.296203
562.445239,-1952.543242,-957.129040,-8863.014910
562.447802,823.130974,727.418070,-9150.153622
562.450365,-210.568389,0.000000,-9322.436850
562.452928,1703.689691,937.986459,-9494.720077
562.455490,1148.554848,1761.117434,-9169.296203
562.458053,1148.554848,918.843878,-9054.440718
562.460616,1550.549045,1818.545176,-8920.442653
562.463179,-497.707101,-1339.980656,-9265.009107
562.465742,-1033.699363,-937.986459,-8939.585234
562.468305,-1914.258080,-1397.408398,-8997.012976
562.470868,-2641.676150,765.703232,-8863.014910
562.473431,-2986.242605,-1435.693560,-8786.444587
562.475993,-2182.254211,306.281293,-8824.729749
562.478556,-2584.248408,-2584.248408,-9073.583299
562.481119,38.285162,-38.285162,-9092.725880
562.483682,-727.418070,-1014.556782,-9073.583299
562.486245,-57.427742,-114.855485,-8901.300072
562.488809,-191.425808,-803.988394,-8882.157491
562.491372,-3081.955509,-287.138712,-9111.868461
562.493936,-3713.660675,-1473.978722,-9035.298138
562.496500,1071.984525,-344.566454,-9150.153622
562.499063,-1359.123237,-535.992262,-8920.442653
562.501627,-2507.678085,-823.130974,-8786.444587
562.504191,-3369.094221,-899.701298,-8671.589102
562.506754,-3120.240670,-1378.265818,-9092.725880
562.509318,-1110.269686,-823.130974,-8977.870395
562.511881,-2507.678085,-1741.974853,-8882.157491
562.514445,-1780.260014,401.994197,-8958.727814
562.517009,-1167.697429,1339.980656,-9035.298138
562.519572,1665.404530,1014.556782,-9245.866526
562.522136,650.847747,784.845813,-9169.296203
562.524699,1033.699363,-57.427742,-9245.866526
562.527263,1186.840010,1397.408398,-9111.868461
562.529827,210.568389,1205.982590,-9131.011042
562.532390,267.996131,1531.406464,-9054.440718
562.534954,-1225.125171,440.279358,-9073.583299
562.537517,-555.134843,-1378.265818,-8920.442653
562.540081,-153.140646,-746.560651,-8977.870395
562.542645,1301.695494,1493.121302,-9054.440718
562.545208,-19.142581,555.134843,-9111.868461
562.547772,478.564520,1110.269686,-8748.159426
562.550336,153.140646,-516.849682,-8977.870395
562.552899,1397.408398,574.277424,-9207.581365
562.555463,1186.840010,612.562586,-9341.579430
562.558026,1416.550979,1282.552914,-9111.868461
562.560590,1186.840010,2201.396792,-9016.155557
562.563154,784.845813,669.990328,-9207.581365
562.565717,95.712904,-784.845813,-9111.868461
562.568281,-1359.123237,-1225.125171,-9035.298138
562.570844,-1780.260014,-1225.125171,-8882.157491
562.573408,-2928.814862,1033.699363,-8843.872330
562.575972,-3292.523898,-1780.260014,-8786.444587
562.578535,-1684.547110,133.998066,-8824.729749
562.581099,-2852.244539,-1722.832272,-9169.296203
562.583663,-287.138712,-344.566454,-9131.011042
562.586226,-497.707101,-574.277424,-8939.585234
562.588790,-325.423874,-229.710970,-8901.300072
562.591355,-2316.252277,2756.531635,-9150.153622
562.593919,-5551.348432,-4307.080680,-9188.438784
562.596484,3445.664544,-421.136778,-8595.018779
562.599048,-1148.554848,-1071.984525,-9073.583299
562.601612,-2048.256146,-133.998066,-8824.729749
562.604177,-3579.662610,727.418070,-8595.018779
562.606741,-3101.098090,-2009.970984,-8901.300072
562.609305,401.994197,1244.267752,-8863.014910
562.611870,-3905.086483,-3771.088418,-9169.296203
562.614434,-1837.687757,153.140646,-8977.870395
562.616998,-2622.533570,-267.996131,-8977.870395
562.619563,784.845813,4115.654872,-9360.722011
562.622127,-1493.121302,-459.421939,-9284.151688
562.624691,2545.963246,555.134843,-9207.581365
562.627256,708.275490,-76.570323,-9111.868461
562.629820,1416.550979,1722.832272,-9226.723946
562.632384,76.570323,1761.117434,-9054.440718
562.634949,-1167.697429,861.416136,-9131.011042
562.637513,-325.423874,555.134843,-8863.014910
562.640077,-1761.117434,-1378.265818,-9111.868461
562.642642,1569.691626,574.277424,-8977.870395
562.645206,-229.710970,746.560651,-9035.298138
562.647770,-191.425808,57.427742,-9092.725880
562.650335,1205.982590,2622.533570,-8652.446522
562.652899,-650.847747,-1971.685822,-9265.009107
562.655464,2258.824534,2335.394858,-9456.434915
562.658028,76.570323,-38.285162,-9513.862658
562.660592,2067.398726,2086.541307,-9150.153622
562.663157,612.562586,1071.984525,-8863.014910
562.665721,861.416136,-650.847747,-9150.153622
562.668285,-2220.539373,-1416.550979,-9054.440718
562.670850,-516.849682,-803.988394,-8977.870395
562.673414,-3732.803256,-459.421939,-8843.872330
562.675978,-2086.541307,-267.996131,-8767.302006
562.678543,-3637.090352,-287.138712,-8709.874264
562.681107,-3388.236802,-3388.236802,-9131.011042
562.683671,957.129040,1052.841944,-9131.011042
562.686236,-976.271621,-2354.537438,-9035.298138
562.688800,1052.841944,76.570323,-8709.874264
562.691365,-765.703232,-1531.406464,-8843.872330
562.693929,-1416.550979,842.273555,-9035.298138
562.696493,-4096.512291,-2813.959378,-8958.727814
562.699058,-95.712904,-1512.263883,-9016.155557
562.701622,-1359.123237,-957.129040,-8958.727814
562.704187,-2067.398726,-727.418070,-8518.448456
562.706751,-2086.541307,76.570323,-8690.731683
562.709316,-3062.812928,-1741.974853,-9111.868461
562.711880,-1588.834206,-880.558717,-8977.870395
562.714445,-2603.390989,-1914.258080,-8920.442653
562.717009,-1091.127106,1129.412267,-8882.157491
562.719574,-727.418070,2871.387120,-9188.438784
562.722138,191.425808,-440.279358,-9245.866526
562.724703,1761.117434,842.273555,-9188.438784
562.727267,1091.127106,267.996131,-9150.153622
562.729832,1339.980656,1263.410333,-9131.011042
562.732396,-19.142581,1493.121302,-9169.296203
562.734961,-363.709035,1473.978722,-9016.155557
562.737525,-1397.408398,1378.265818,-9092.725880
562.740090,-478.564520,-2239.681954,-8939.585234
562.742654,0.000000,1875.972918,-9150.153622
562.745219,-1933.400661,2507.678085,-9533.005238
562.747783,0.000000,1646.261949,-8824.729749
562.750348,-267.996131,114.855485,-8958.727814
562.752912,555.134843,650.847747,-9169.296203
562.755477,842.273555,-210.568389,-9456.434915
562.758041,1091.127106,1741.974853,-9456.434915
562.760606,555.134843,1359.123237,-9169.296203
562.763170,1895.115499,2297.109696,-8939.585234
562.765735,133.998066,-1033.699363,-9150.153622
562.768299,-765.703232,-1033.699363,-8977.870395
562.770864,-1512.263883,-1397.408398,-9073.583299
562.773428,-3273.381317,-38.285162,-8863.014910
562.775993,-3560.520029,-1416.550979,-8767.302006
562.778557,-2335.394858,440.279358,-8671.589102
562.781122,-2450.250342,-2545.963246,-9016.155557
562.783686,-95.712904,325.423874,-9188.438784
562.786251,-555.134843,-2335.394858,-9073.583299
562.788815,344.566454,1454.836141,-8939.585234
562.791380,-2105.683888,1033.699363,-9073.583299
562.793944,-3043.670347,-3369.094221,-8939.585234
562.796509,1071.984525,-267.996131,-8786.444587
562.799074,-1569.691626,-593.420005,-9111.868461
562.801639,-2105.683888,-325.423874,-8958.727814
562.804204,-3675.375514,-516.849682,-8748.159426
562.806769,-1895.115499,-1205.982590,-8748.159426
562.809334,-976.271621,38.285162,-8882.157491
562.811899,-3541.377448,-2679.961312,-9188.438784
562.814463,-2105.683888,153.140646,-8863.014910
562.817028,-2182.254211,497.707101,-9016.155557
562.819593,1339.980656,2603.390989,-9303.294269
562.822158,-842.273555,-440.279358,-9322.436850
562.824723,2584.248408,650.847747,-9265.009107
562.827288,689.132909,-267.996131,-9131.011042
562.829853,1837.687757,1703.689691,-9265.009107
562.832418,-114.855485,1282.552914,-9092.725880
562.834982,-1761.117434,267.996131,-9035.298138
562.837547,-1071.984525,1531.406464,-9131.011042
562.840112,-440.279358,899.701298,-9188.438784
562.842677,-1550.549045,-880.558717,-9265.009107
562.845242,-191.425808,650.847747,-9054.440718
562.847807,516.849682,1378.265818,-8863.014910
562.850372,-727.418070,1378.265818,-8863.014910
562.852937,842.273555,1033.699363,-9322.436850
562.855501,1129.412267,248.853550,-9475.577496
562.858066,1971.685822,1148.554848,-9322.436850
562.860631,1646.261949,1512.263883,-8997.012976
562.863196,325.423874,1071.984525,-8901.300072
562.865761,-133.998066,-95.712904,-9035.298138
562.868326,-1722.832272,-823.130974,-8977.870395
562.870891,-1263.410333,-1780.260014,-8901.300072
562.873456,-3254.238736,459.421939,-8786.444587
562.876020,-4402.793584,-2756.531635,-8805.587168
562.878585,-1454.836141,1033.699363,-8882.157491
562.881150,-2813.959378,-1933.400661,-9111.868461
562.883715,1110.269686,306.281293,-9111.868461
562.886280,-612.562586,-516.849682,-9150.153622
562.888845,191.425808,-631.705166,-8843.872330
562.891410,-2871.387120,-287.138712,-8958.727814
562.893975,-3235.096155,-2871.387120,-8824.729749
562.896540,229.710970,1837.687757,-9188.438784
562.899105,-2718.246474,-2852.244539,-9169.296203
562.901670,-1263.410333,-19.142581,-8709.874264
562.904236,-3771.088418,-1569.691626,-8729.016845
562.906801,-689.132909,382.851616,-8863.014910
562.909366,-3464.807125,-2220.539373,-8920.442653
562.911932,-1531.406464,-957.129040,-9035.298138
562.914497,-2086.541307,1110.269686,-8824.729749
562.917062,-95.712904,1129.412267,-9207.581365
562.919628,1091.127106,1186.840010,-9169.296203
562.922193,1684.547110,-38.285162,-9207.581365
562.924758,1397.408398,842.273555,-9188.438784
562.927324,555.134843,555.134843,-9169.296203
562.929889,1512.263883,1703.689691,-8997.012976
562.932454,-669.990328,689.132909,-9054.440718
562.935020,-784.845813,287.138712,-9054.440718
562.937585,-1033.699363,-784.845813,-8939.585234
562.940150,344.566454,172.283227,-9245.866526
562.942715,-823.130974,1761.117434,-9150.153622
562.945281,57.427742,1320.838075,-9188.438784
562.947846,-133.998066,1397.408398,-8882.157491
562.950411,172.283227,-95.712904,-9207.581365
562.952977,1799.402595,708.275490,-9437.292334
562.955542,1359.123237,1052.841944,-9360.722011
562.958107,1129.412267,1397.408398,-9226.723946
562.960673,1186.840010,1990.828403,-8939.585234
562.963238,114.855485,-937.986459,-8977.870395
562.965803,-976.271621,-401.994197,-9035.298138
562.968369,-1875.972918,-1856.830338,-8939.585234
562.970934,-2584.248408,650.847747,-8863.014910
562.973499,-4460.221326,-1741.974853,-8786.444587
562.976064,-2124.826469,363.709035,-8805.587168
562.978630,-2679.961312,-1837.687757,-9131.011042
562.981195,172.283227,-19.142581,-9284.151688
562.983760,-880.558717,-1454.836141,-9169.296203
562.986326,172.283227,-421.136778,-8786.444587
562.988891,-114.855485,-1895.115499,-8863.014910
562.991456,-1761.117434,-1205.982590,-9016.155557
562.994022,-1263.410333,-1416.550979,-9150.153622
562.996587,-574.277424,-114.855485,-8977.870395
562.999152,-2411.965181,-1684.547110,-8939.585234
563.001717,-2105.683888,-172.283227,-8652.446522
563.004283,-2105.683888,-1167.697429,-8786.444587
563.006848,-1856.830338,-1761.117434,-8843.872330
563.009413,-2086.541307,-1129.412267,-8920.442653
563.011978,-1741.974853,325.423874,-8997.012976
563.014544,-708.275490,2699.103893,-9226.723946
563.017109,765.703232,-555.134843,-9207.581365
563.019674,2239.681954,1435.693560,-9169.296203
563.022239,1033.699363,-172.283227,-9150.153622
563.024805,1263.410333,1148.554848,-9169.296203
563.027370,555.134843,976.271621,-9226.723946
563.029935,38.285162,1588.834206,-8958.727814
563.032500,-1339.980656,746.560651,-9054.440718
563.035065,-1320.838075,363.709035,-9131.011042
563.037631,-2584.248408,153.140646,-9207.581365
563.040196,2029.113565,-57.427742,-9016.155557
563.042761,1990.828403,2182.254211,-8748.159426
563.045326,-2067.398726,-382.851616,-8977.870395
563.047892,1129.412267,995.414202,-9418.149754
563.050457,-401.994197,-574.277424,-9475.577496
563.053022,3024.527766,2239.681954,-9399.007173
563.055587,1320.838075,2105.683888,-8977.870395
563.058152,842.273555,555.134843,-8977.870395
563.060718,-421.136778,-382.851616,-8901.300072
563.063283,-803.988394,-1339.980656,-9073.583299
563.065848,-1875.972918,-1148.554848,-8882.157491
563.068413,-2833.101958,-172.283227,-8805.587168
563.070979,-4077.369710,-1244.267752,-8805.587168
563.073544,-2373.680019,-133.998066,-8767.302006
563.076109,-1722.832272,-1225.125171,-9111.868461
563.078674,248.853550,-593.420005,-9226.723946
563.081240,-746.560651,-1014.556782,-9073.583299
563.083805,248.853550,-1052.841944,-8729.016845
563.086370,440.279358,1205.982590,-8767.302006
563.088935,-2297.109696,-2679.961312,-9035.298138
563.091500,-114.855485,669.990328,-9150.153622
563.094066,-2928.814862,-1780.260014,-9169.296203
563.096631,-1895.115499,-191.425808,-8729.016845
563.099196,-3407.379382,-1320.838075,-8767.302006
563.101762,-1473.978722,-382.851616,-8882.157491
563.104327,-3560.520029,-1799.402595,-9016.155557
563.106892,-2239.681954,-1627.119368,-9016.155557
563.109458,-1129.412267,1722.832272,-8939.585234
563.112023,-19.142581,1052.841944,-9284.151688
563.114588,899.701298,1531.406464,-9188.438784
563.117154,1435.693560,-708.275490,-9092.725880
563.119719,2277.967115,1052.841944,-9169.296203
563.122284,765.703232,650.847747,-9188.438784
563.124850,612.562586,1933.400661,-9111.868461
563.127415,-2316.252277,267.996131,-9054.440718
563.129981,-555.134843,459.421939,-9111.868461
563.132546,-803.988394,1493.121302,-9035.298138
563.135111,-1856.830338,-727.418070,-9303.294269
563.137677,2258.824534,2239.681954,-8920.442653
563.140242,-2584.248408,823.130974,-9245.866526
563.142807,574.277424,1435.693560,-9226.723946
563.145373,1320.838075,1454.836141,-9341.579430
563.147938,1186.840010,-421.136778,-9494.720077
563.150503,2258.824534,2947.957443,-9226.723946
563.153069,842.273555,-38.285162,-8977.870395
563.155634,1684.547110,1454.836141,-8977.870395
563.158200,-2316.252277,-2565.105827,-8977.870395
563.160765,-38.285162,210.568389,-9035.298138
563.163330,-4134.797453,-401.994197,-8824.729749
563.165896,-2641.676150,-1244.267752,-8882.157491
563.168461,-3732.803256,440.279358,-8633.303941
563.171026,-2335.394858,-2450.250342,-8863.014910
563.173592,229.710970,-38.285162,-9111.868461
563.176157,-555.134843,-1320.838075,-9150.153622
563.178722,95.712904,976.271621,-8767.302006
563.181288,-1493.121302,-3120.240670,-8939.585234
563.183853,957.129040,-2105.683888,-8786.444587
563.186419,-1837.687757,344.566454,-8939.585234
563.188984,-2105.683888,-2067.398726,-9226.723946
563.191549,-2124.826469,-76.570323,-8843.872330
563.194115,-2354.537438,-631.705166,-8824.729749
563.196680,-1359.123237,38.285162,-8556.733618
563.199245,-3445.664544,-2833.101958,-9073.583299
563.201811,-2526.820666,-1091.127106,-9016.155557
563.204356,-1875.972918,976.271621,-8882.157491
563.206902,114.855485,1952.543242,-9245.866526
563.209447,803.988394,497.707101,-9188.438784
563.211993,2163.111630,708.275490,-9226.723946
563.214539,1033.699363,401.994197,-9150.153622
563.217084,1244.267752,899.701298,-9245.866526
563.219630,746.560651,1110.269686,-9265.009107
563.222175,-842.273555,1225.125171,-8901.300072
563.224721,-363.709035,-593.420005,-8920.442653
563.227267,-1359.123237,-1225.125171,-9092.725880
563.229812,1052.841944,976.271621,-9035.298138
563.232358,1435.693560,-76.570323,-8671.589102
563.234903,-287.138712,2297.109696,-9111.868461
563.237449,-1186.840010,689.132909,-9016.155557
563.239994,1780.260014,478.564520,-9265.009107
563.242540,1033.699363,421.136778,-9399.007173
563.245086,2105.683888,1454.836141,-9245.866526
563.247631,1569.691626,2335.394858,-9073.583299
563.250177,325.423874,-631.705166,-9073.583299
563.252722,-957.129040,-363.709035,-8997.012976
563.255268,-1799.402595,-1397.408398,-9092.725880
563.257813,-2699.103893,-440.279358,-8958.727814
563.260359,-3369.094221,-1320.838075,-8882.157491
563.262905,-3330.809059,708.275490,-8729.016845
563.265450,-2986.242605,-2258.824534,-8863.014910
563.267996,344.566454,-57.427742,-9092.725880
563.270541,-344.566454,-1167.697429,-9169.296203
563.273087,76.570323,-459.421939,-8920.442653
563.275633,-114.855485,669.990328,-8805.587168
563.278178,-4364.508422,-3024.527766,-8977.870395
563.280724,-1339.980656,-2258.824534,-9226.723946
563.283269,95.712904,976.271621,-8958.727814
563.285815,-2622.533570,-2718.246474,-9054.440718
563.288360,-2220.539373,995.414202,-8652.446522
563.290906,-3560.520029,-2143.969050,-8843.872330
563.293452,-1129.412267,-95.712904,-8748.159426
563.295997,-3196.810994,-3254.238736,-9073.583299
563.298543,-727.418070,497.707101,-9092.725880
563.301088,-899.701298,2201.396792,-9073.583299
563.303634,842.273555,19.142581,-9360.722011
563.306182,1550.549045,1588.834206,-9111.868461
563.308731,1454.836141,-114.855485,-9131.011042
563.311279,1435.693560,1244.267752,-9169.296203
563.313828,344.566454,593.420005,-9284.151688
563.316376,306.281293,2354.537438,-8997.012976
563.318924,-1359.123237,-574.277424,-8958.727814
563.321473,210.568389,1282.552914,-9284.151688
563.324021,-2277.967115,-267.996131,-9188.438784
563.326570,478.564520,2201.396792,-9035.298138
563.329118,-1071.984525,899.701298,-8901.300072
563.331667,133.998066,1052.841944,-9150.153622
563.334215,1071.984525,1091.127106,-9341.579430
563.336763,1397.408398,842.273555,-9418.149754
563.339312,1378.265818,1052.841944,-9341.579430
563.341860,1665.404530,1569.691626,-8939.585234
563.344409,1052.841944,-344.566454,-8958.727814
563.346957,-1359.123237,-95.712904,-8882.157491
563.349505,-1914.258080,-1512.263883,-9054.440718
563.352054,-3694.518094,-746.560651,-8997.012976
563.354602,-2794.816797,-1282.552914,-8843.872330
563.357151,-2660.818731,478.564520,-8729.016845
563.359699,-2622.533570,-1493.121302,-8901.300072
563.362248,918.843878,-287.138712,-9035.298138
563.364796,-995.414202,-267.996131,-9188.438784
563.367344,497.707101,-803.988394,-8690.731683
563.369893,-2297.109696,-210.568389,-8977.870395
563.372441,-1818.545176,-516.849682,-9188.438784
563.374990,-1301.695494,1378.265818,-9207.581365
563.377538,-1895.115499,-2373.680019,-9035.298138
563.380086,-2086.541307,19.142581,-8882.157491
563.382635,-3885.943902,-1646.261949,-8824.729749
563.385183,-1378.265818,267.996131,-8901.300072
563.387732,-3809.373579,-2220.539373,-8882.157491
563.390280,-1761.117434,-765.703232,-9035.298138
563.392828,-2565.105827,229.710970,-9016.155557
563.395377,1148.554848,1627.119368,-9379.864592
563.397925,19.142581,1033.699363,-9226.723946
563.400474,2105.683888,-248.853550,-9131.011042
563.403022,1990.828403,899.701298,-9092.725880
563.405571,1167.697429,669.990328,-9226.723946
563.408122,-172.283227,1875.972918,-9265.009107
563.410673,-2392.822600,-133.998066,-9035.298138
563.413224,899.701298,-650.847747,-8977.870395
563.415775,-306.281293,153.140646,-9150.153622
563.418326,-1473.978722,1225.125171,-9092.725880
563.420877,-535.992262,1071.984525,-9150.153622
563.423429,899.701298,1473.978722,-8901.300072
563.425980,229.710970,38.285162,-9245.866526
563.428531,1646.261949,1493.121302,-9265.009107
563.431082,669.990328,746.560651,-9590.432981
563.433633,1569.691626,1186.840010,-9207.581365
563.436184,1397.408398,1761.117434,-9073.583299
563.438735,-995.414202,-1607.976787,-8901.300072
563.441287,-727.418070,842.273555,-8977.870395
563.443838,-3369.094221,-2928.814862,-9054.440718
563.446389,-1722.832272,1071.984525,-8843.872330
563.448940,-5359.922624,-3215.953574,-8863.014910
563.451491,-1339.980656,1205.982590,-8843.872330
563.454042,-1014.556782,-363.709035,-9073.583299
563.456593,38.285162,-689.132909,-9245.866526
563.459144,-363.709035,-1493.121302,-8595.018779
563.461696,0.000000,-1703.689691,-8920.442653
563.464247,-57.427742,1110.269686,-8843.872330
563.466798,-3732.803256,-1588.834206,-9150.153622
563.469349,-1167.697429,-172.283227,-9284.151688
563.471900,-2488.535504,-267.996131,-8709.874264
563.474451,-2450.250342,-727.418070,-8843.872330
563.477002,-2105.683888,-535.992262,-8748.159426
563.479554,-3196.810994,-2277.967115,-8958.727814
563.482105,-2641.676150,-1167.697429,-9016.155557
563.484656,-1990.828403,689.132909,-9131.011042
563.487207,-287.138712,1512.263883,-9188.438784
563.489758,1627.119368,937.986459,-9303.294269
563.492309,2488.535504,1263.410333,-9131.011042
563.494860,1244.267752,287.138712,-9073.583299
563.497412,1703.689691,1454.836141,-9131.011042
563.499963,-267.996131,191.425808,-9265.009107
563.502514,-382.851616,1856.830338,-9073.583299
563.505065,-784.845813,-267.996131,-8863.014910
563.507616,-1282.552914,-861.416136,-9207.581365
563.510151,937.986459,1799.402595,-9150.153622
563.512685,-1091.127106,593.420005,-9016.155557
563.515219,842.273555,1033.699363,-8843.872330
563.517753,-57.427742,1071.984525,-9169.296203
563.520287,1473.978722,-344.566454,-9322.436850
563.522821,1856.830338,2354.537438,-9379.864592
563.525355,1129.412267,-76.570323,-9207.581365
563.527889,2029.113565,2852.244539,-9054.440718
563.530423,-1301.695494,-1512.263883,-8920.442653
563.532957,-325.423874,382.851616,-9035.298138
563.535491,-3196.810994,-2277.967115,-8997.012976
563.538025,-1684.547110,478.564520,-8920.442653
563.540559,-5283.352301,-2794.816797,-8824.729749
563.543093,-2182.254211,669.990328,-8882.157491
563.545627,-2928.814862,-1875.972918,-9092.725880
563.548161,1320.838075,689.132909,-9150.153622
563.550695,-1091.127106,459.421939,-9035.298138
563.553229,-1339.980656,1186.840010,-8958.727814
563.555763,-2775.674216,-4689.932296,-8958.727814
563.558297,1914.258080,-325.423874,-8977.870395
563.560831,-1741.974853,-689.132909,-9092.725880
563.563365,-1914.258080,-76.570323,-8709.874264
563.565899,-3101.098090,-555.134843,-8709.874264
563.568433,-3311.666478,-1990.828403,-8824.729749
563.570967,-1129.412267,-689.132909,-8729.016845
563.573501,-3369.094221,-2871.387120,-8939.585234
563.576035,-1110.269686,1569.691626,-8939.585234
563.578569,-1378.265818,1263.410333,-9169.296203
563.581103,2220.539373,1014.556782,-9226.723946
563.583637,1282.552914,861.416136,-9150.153622
563.586171,2239.681954,593.420005,-9188.438784
563.588705,1761.117434,1588.834206,-9035.298138
563.591239,-421.136778,306.281293,-9226.723946
563.593773,-401.994197,1761.117434,-9016.155557
563.596307,-1071.984525,-957.129040,-8958.727814
563.598841,842.273555,937.986459,-9284.151688
563.601375,-1952.543242,478.564520,-9035.298138
563.603909,708.275490,957.129040,-8805.587168
563.606443,-497.707101,1741.974853,-9054.440718
563.608977,267.996131,1052.841944,-9322.436850
563.611516,1454.836141,765.703232,-9360.722011
563.614055,2201.396792,1129.412267,-9418.149754
563.616594,1167.697429,727.418070,-9341.579430
563.619133,1359.123237,1895.115499,-9054.440718
563.621671,-650.847747,-842.273555,-8997.012976
563.624210,-937.986459,535.992262,-8882.157491
563.626749,-3503.092286,-1454.836141,-9016.155557
563.629288,-2220.539373,-382.851616,-8824.729749
563.631827,-4709.074877,-2029.113565,-8786.444587
563.634365,-2220.539373,-114.855485,-8939.585234
563.636904,-1646.261949,-746.560651,-9111.868461
563.639443,497.707101,-708.275490,-9150.153622
563.641982,-1071.984525,1033.699363,-8882.157491
563.644521,-2794.816797,-1397.408398,-8901.300072
563.647059,650.847747,-708.275490,-9016.155557
563.649598,-2641.676150,-880.558717,-9016.155557
563.652137,-1435.693560,-1627.119368,-9150.153622
563.654676,-1971.685822,1225.125171,-8843.872330
563.657214,-3235.096155,-2048.256146,-8843.872330
563.659753,-1320.838075,-38.285162,-8633.303941
563.662292,-4709.074877,-3483.949706,-9073.583299
563.664831,-1512.263883,-210.568389,-8997.012976
563.667370,-2239.681954,669.990328,-9092.725880
563.669908,1914.258080,3081.955509,-9245.866526
563.672447,-1301.695494,-823.130974,-9207.581365
563.674986,3694.518094,1225.125171,-9150.153622
563.677525,937.986459,76.570323,-9131.011042
563.680064,1895.115499,2163.111630,-9207.581365
563.682602,-440.279358,2182.254211,-9131.011042
563.685141,-3024.527766,-287.138712,-9111.868461
563.687680,1588.834206,114.855485,-8958.727814
563.690219,-153.140646,-287.138712,-9379.864592
563.692762,-631.705166,2297.109696,-9035.298138
563.695305,-1837.687757,421.136778,-8786.444587
563.697848,535.992262,1378.265818,-9092.725880
563.700391,325.423874,612.562586,-9475.577496
563.702933,2182.254211,746.560651,-9360.722011
563.705476,1837.687757,1550.549045,-9284.151688
563.708019,1110.269686,229.710970,-9131.011042
563.710562,1435.693560,1225.125171,-9054.440718
563.713105,-2545.963246,-2029.113565,-8882.157491
563.715648,-191.425808,363.709035,-8997.012976
563.718191,-4881.358104,-2105.683888,-9073.583299
563.720734,-2775.674216,-1952.543242,-8882.157491
563.723277,-3579.662610,440.279358,-8729.016845
563.725820,-3005.385186,-2163.111630,-9073.583299
563.728363,1378.265818,899.701298,-8997.012976
563.730905,-976.271621,-1282.552914,-9111.868461
563.733448,-363.709035,1569.691626,-8614.161360
563.735991,-3235.096155,-2105.683888,-9073.583299
563.738534,-937.986459,-1129.412267,-9265.009107
563.741077,-153.140646,-57.427742,-9092.725880
563.743620,-1665.404530,-516.849682,-8939.585234
563.746163,-3005.385186,-918.843878,-8633.303941
563.748706,-1914.258080,-153.140646,-8805.587168
563.751249,-3292.523898,-2220.539373,-8805.587168
563.753792,-2143.969050,-1473.978722,-8958.727814
563.756335,-2584.248408,-325.423874,-8997.012976
563.758877,38.285162,1454.836141,-9284.151688
563.761420,2277.967115,1205.982590,-9054.440718
563.763963,1837.687757,421.136778,-9188.438784
563.766506,1875.972918,555.134843,-9092.725880
563.769049,1282.552914,976.271621,-9169.296203
563.771592,918.843878,784.845813,-9131.011042
563.774135,-803.988394,1895.115499,-9016.155557
563.776678,-1837.687757,-440.279358,-9092.725880
563.779221,-1378.265818,-382.851616,-9341.579430
563.781764,210.568389,1359.123237,-9284.151688
563.784307,-1435.693560,1186.840010,-8805.587168
563.786849,76.570323,1071.984525,-8882.157491
563.789392,765.703232,899.701298,-9245.866526
563.791935,1301.695494,-248.853550,-9399.007173
563.794482,2163.111630,2258.824534,-9284.151688
563.797029,1205.982590,823.130974,-9322.436850
563.799575,1646.261949,1856.830338,-9111.868461
563.802122,-1895.115499,-1588.834206,-8939.585234
563.804669,-746.560651,-210.568389,-8958.727814
563.807215,-3866.801322,-1741.974853,-8997.012976
563.809762,-1627.119368,-248.853550,-8901.300072
563.812308,-5264.209720,-1895.115499,-8843.872330
563.814855,-2048.256146,-133.998066,-8901.300072
563.817402,899.701298,535.992262,-9035.298138
563.819948,-574.277424,-2679.961312,-9054.440718
563.822495,-38.285162,-95.712904,-8595.018779
563.825042,612.562586,-1359.123237,-8863.014910
563.827588,-2258.824534,2297.109696,-9150.153622
563.830135,-4479.363907,-3771.088418,-9437.292334
563.832682,-19.142581,937.986459,-9092.725880
563.835228,-2392.822600,-1722.832272,-8729.016845
563.837775,-497.707101,1627.119368,-8633.303941
563.840322,-4747.360038,-3369.094221,-8824.729749
563.842868,-2392.822600,-1856.830338,-8977.870395
563.845415,-2947.957443,-76.570323,-8977.870395
563.847962,650.847747,976.271621,-9111.868461
563.850508,2009.970984,2507.678085,-9016.155557
563.853055,1263.410333,-76.570323,-9284.151688
563.855602,2258.824534,1091.127106,-9035.298138
563.858148,631.705166,210.568389,-9188.438784
563.860695,1531.406464,1263.410333,-9226.723946
563.863241,-1167.697429,1339.980656,-9035.298138
563.865788,-1282.552914,-57.427742,-9092.725880
563.868335,1052.841944,1435.693560,-9360.722011
563.870881,-2201.396792,-325.423874,-9150.153622
563.873428,401.994197,1799.402595,-8805.587168
563.875975,-631.705166,1799.402595,-9016.155557
563.878521,172.283227,1071.984525,-9456.434915
563.881068,1895.115499,2182.254211,-9284.151688
563.883615,1148.554848,-593.420005,-9379.864592
563.886161,2316.252277,2009.970984,-9245.866526
563.888708,669.990328,708.275490,-9150.153622
563.891255,-363.709035,-153.140646,-8939.585234
563.893801,-1110.269686,363.709035,-8748.159426
563.896332,-4249.652938,-2086.541307,-9016.155557
563.898863,-1875.972918,-401.994197,-8786.444587
563.901394,-5053.641331,-2182.254211,-8901.300072
563.903925,-2067.398726,-38.285162,-8882.157491
563.906456,-842.273555,-191.425808,-9073.583299
563.908987,440.279358,-1052.841944,-9073.583299
563.911518,-114.855485,497.707101,-8537.591037
563.914049,-2239.681954,-287.138712,-9073.583299
563.916580,-1129.412267,-3924.229064,-9073.583299
563.919111,401.994197,1818.545176,-9418.149754
563.921642,-2852.244539,-1741.974853,-8920.442653
563.924173,-1703.689691,-574.277424,-8652.446522
563.926704,-3330.809059,-1014.556782,-8748.159426
563.929235,-2277.967115,-669.990328,-8882.157491
563.931766,-3369.094221,-1799.402595,-8843.872330
563.934297,-2660.818731,-669.990328,-9169.296203
563.936828,19.142581,3177.668413,-9054.440718
563.939359,1205.982590,-880.558717,-9399.007173
563.941890,2756.531635,2699.103893,-9092.725880
563.944421,650.847747,-191.425808,-9111.868461
563.946952,2450.250342,1722.832272,-9092.725880
563.949483,516.849682,-172.283227,-9131.011042
563.952014,-267.996131,1875.972918,-9073.583299
563.954545,-727.418070,-1071.984525,-8997.012976
563.957076,535.992262,861.416136,-9494.720077
563.959607,-2163.111630,1071.984525,-9073.583299
563.962138,-1129.412267,535.992262,-9035.298138
563.964669,1359.123237,1933.400661,-8690.731683
563.967200,-267.996131,-631.705166,-9513.862658
563.969731,1550.549045,2411.965181,-9265.009107
563.972262,191.425808,574.277424,-9360.722011
563.974793,3043.670347,1397.408398,-9169.296203
563.977324,516.849682,306.281293,-9092.725880
563.979855,-957.129040,-1129.412267,-8863.014910
563.982386,-1933.400661,-459.421939,-8958.727814
563.984917,-3598.805190,-1397.408398,-9016.155557
563.987448,-2660.818731,-1110.269686,-8824.729749
563.989979,-3560.520029,-555.134843,-8805.587168
563.992510,-2392.822600,-1091.127106,-9016.155557
563.995041,689.132909,172.283227,-8997.012976
563.997577,76.570323,-1225.125171,-8882.157491
564.000114,-38.285162,-76.570323,-8480.163294
564.002650,-2220.539373,-229.710970,-9016.155557
564.005187,-2871.387120,-976.271621,-9494.720077
564.007723,-440.279358,-803.988394,-9188.438784
564.010260,-1646.261949,382.851616,-8767.302006
564.012797,-2852.244539,-210.568389,-8614.161360
