#time,accel_x,accel_y,accel_z
686.858560,-708.275490,-38.285162,-9073.583299
686.861111,-650.847747,19.142581,-9073.583299
686.863662,-727.418070,76.570323,-9073.583299
686.866213,-669.990328,38.285162,-9054.440718
686.868765,-689.132909,57.427742,-8997.012976
686.871318,-593.420005,57.427742,-9092.725880
686.873871,-650.847747,38.285162,-9073.583299
686.876424,-440.279358,-229.710970,-9054.440718
686.878976,-267.996131,-2143.969050,-9016.155557
686.881529,-899.701298,535.992262,-9169.296203
686.884082,-574.277424,-267.996131,-8977.870395
686.886635,-746.560651,76.570323,-9016.155557
686.889187,612.562586,-784.845813,-9150.153622
686.891740,1014.556782,-516.849682,-9245.866526
686.894293,1703.689691,-1320.838075,-9169.296203
686.896845,612.562586,-593.420005,-9054.440718
686.899398,-535.992262,-191.425808,-8901.300072
686.901951,-1856.830338,-593.420005,-8958.727814
686.904504,-2029.113565,1263.410333,-9111.868461
686.907056,-1741.974853,-153.140646,-9226.723946
686.909609,-995.414202,937.986459,-9092.725880
686.912162,-555.134843,-497.707101,-9016.155557
686.914715,-421.136778,1225.125171,-9035.298138
686.917267,-363.709035,325.423874,-9016.155557
686.919820,-803.988394,1301.695494,-8901.300072
686.922373,-1129.412267,421.136778,-8997.012976
686.924926,-1684.547110,19.142581,-9016.155557
686.927478,-1282.552914,593.420005,-9035.298138
686.930031,-1512.263883,210.568389,-9111.868461
686.932584,-880.558717,1091.127106,-8824.729749
686.935136,-765.703232,-95.712904,-9207.581365
686.937689,-803.988394,-612.562586,-9111.868461
686.940242,-2124.826469,-784.845813,-9054.440718
686.942795,-1052.841944,478.564520,-8977.870395
686.945347,-516.849682,-478.564520,-9073.583299
686.947900,-1703.689691,1186.840010,-8997.012976
686.950455,-516.849682,823.130974,-9188.438784
686.953009,-1148.554848,-287.138712,-8882.157491
686.955564,-880.558717,1052.841944,-9150.153622
686.958118,-1837.687757,-459.421939,-8997.012976
686.960673,-1990.828403,1167.697429,-8767.302006
686.963227,-1512.263883,-229.710970,-9150.153622
686.965782,-1301.695494,1167.697429,-9035.298138
686.968336,-631.705166,1110.269686,-9016.155557
686.970891,-1320.838075,918.843878,-8958.727814
686.973445,-708.275490,-344.566454,-9016.155557
686.976000,-1014.556782,-746.560651,-9092.725880
686.978554,-631.705166,803.988394,-9035.298138
686.981109,-937.986459,1033.699363,-8997.012976
686.983663,-1971.685822,2737.389054,-8824.729749
686.986218,-1282.552914,899.701298,-9035.298138
686.988772,-1531.406464,-1875.972918,-9073.583299
686.991327,-880.558717,-1780.260014,-9265.009107
686.993881,306.281293,842.273555,-9054.440718
686.996436,1416.550979,-727.418070,-8920.442653
686.998990,746.560651,95.712904,-8805.587168
687.001545,-593.420005,631.705166,-9054.440718
687.004099,-803.988394,-1856.830338,-9265.009107
687.006654,-784.845813,-478.564520,-9131.011042
687.009208,-421.136778,-1856.830338,-9207.581365
687.011763,-555.134843,-114.855485,-9016.155557
687.014317,401.994197,-229.710970,-9054.440718
687.016872,-287.138712,1339.980656,-9092.725880
687.019426,19.142581,-689.132909,-9073.583299
687.021981,-325.423874,-1397.408398,-9111.868461
687.024535,-1033.699363,-1339.980656,-9188.438784
687.027090,-459.421939,-1416.550979,-9111.868461
687.029644,-478.564520,401.994197,-9092.725880
687.032199,229.710970,57.427742,-9092.725880
687.034753,-593.420005,-842.273555,-9456.434915
687.037308,-38.285162,-2679.961312,-9284.151688
687.039862,-2354.537438,-267.996131,-8920.442653
687.042417,-363.709035,-765.703232,-8882.157491
687.044971,-440.279358,1588.834206,-8805.587168
687.047526,535.992262,401.994197,-9092.725880
687.050080,-440.279358,-1263.410333,-9092.725880
687.052637,-593.420005,-555.134843,-8977.870395
687.055193,-191.425808,-1493.121302,-9265.009107
687.057749,229.710970,382.851616,-9016.155557
687.060305,727.418070,-1320.838075,-9111.868461
687.062861,-19.142581,95.712904,-8901.300072
687.065418,57.427742,-1148.554848,-9188.438784
687.067974,-1110.269686,535.992262,-9035.298138
687.070530,-1186.840010,-669.990328,-8977.870395
687.073086,-1607.976787,76.570323,-8997.012976
687.075643,95.712904,-1301.695494,-9188.438784
687.078199,19.142581,-823.130974,-9245.866526
687.080755,784.845813,-612.562586,-9207.581365
687.083311,76.570323,459.421939,-8977.870395
687.085867,267.996131,-861.416136,-9054.440718
687.088424,-689.132909,-191.425808,-9092.725880
687.090980,-2450.250342,535.992262,-8920.442653
687.093536,-1071.984525,1837.687757,-8882.157491
687.096092,-1148.554848,-38.285162,-9111.868461
687.098649,-1244.267752,-229.710970,-9073.583299
687.101205,-1014.556782,918.843878,-9073.583299
687.103761,-861.416136,2009.970984,-8920.442653
687.106317,-803.988394,746.560651,-8997.012976
687.108873,-114.855485,-38.285162,-8977.870395
687.111430,-1033.699363,-1244.267752,-9054.440718
687.113986,-1282.552914,267.996131,-8939.585234
687.116542,-1531.406464,2316.252277,-8824.729749
687.119098,-1550.549045,1167.697429,-8843.872330
687.121655,-1531.406464,1301.695494,-9035.298138
687.124211,-1263.410333,-880.558717,-9188.438784
687.126767,-918.843878,-325.423874,-9092.725880
687.129323,-267.996131,-248.853550,-8901.300072
687.131879,-1282.552914,1167.697429,-9054.440718
687.134436,-1435.693560,-803.988394,-9131.011042
687.136992,-1933.400661,1703.689691,-8958.727814
687.139548,-727.418070,-823.130974,-9188.438784
687.142104,-344.566454,995.414202,-9111.868461
687.144660,689.132909,1646.261949,-9073.583299
687.147217,-1818.545176,-976.271621,-9054.440718
687.149773,-1550.549045,1761.117434,-8709.874264
687.152329,-1684.547110,-689.132909,-9150.153622
687.154886,-2182.254211,1971.685822,-8939.585234
687.157444,-957.129040,-689.132909,-9111.868461
687.160001,-1722.832272,1780.260014,-8805.587168
687.162559,-861.416136,1071.984525,-8863.014910
687.165116,-1378.265818,1033.699363,-8882.157491
687.167673,-612.562586,-57.427742,-9131.011042
687.170231,-306.281293,-880.558717,-9284.151688
687.172788,-823.130974,650.847747,-8977.870395
687.175345,-842.273555,1282.552914,-8863.014910
687.177903,-2067.398726,2431.107762,-8709.874264
687.180460,-1703.689691,1282.552914,-8977.870395
687.183017,-1416.550979,-1416.550979,-9035.298138
687.185575,-689.132909,-1722.832272,-9322.436850
687.188132,-114.855485,574.277424,-8958.727814
687.190689,555.134843,2086.541307,-8882.157491
687.193247,937.986459,-612.562586,-8843.872330
687.195804,95.712904,612.562586,-9169.296203
687.198361,-344.566454,-2335.394858,-9226.723946
687.200919,-1091.127106,-708.275490,-9226.723946
687.203476,-612.562586,-1320.838075,-9073.583299
687.206033,-1071.984525,344.566454,-8920.442653
687.208591,248.853550,-325.423874,-9188.438784
687.211148,-267.996131,306.281293,-9092.725880
687.213705,19.142581,-708.275490,-9054.440718
687.216263,-363.709035,-1378.265818,-9131.011042
687.218820,-574.277424,-1512.263883,-9169.296203
687.221377,-210.568389,-440.279358,-9111.868461
687.223935,-172.283227,-650.847747,-9150.153622
687.226492,-133.998066,1033.699363,-8882.157491
687.229049,-631.705166,-114.855485,-9016.155557
687.231607,593.420005,-1052.841944,-8977.870395
687.234164,-1416.550979,287.138712,-8997.012976
687.236721,-478.564520,1071.984525,-8958.727814
687.239279,57.427742,-803.988394,-9073.583299
687.241836,-727.418070,-593.420005,-8997.012976
687.244393,-631.705166,-765.703232,-9054.440718
687.246951,-19.142581,-1665.404530,-9111.868461
687.249508,229.710970,76.570323,-9150.153622
687.252065,957.129040,-478.564520,-9131.011042
687.254623,38.285162,-344.566454,-8882.157491
687.257181,-267.996131,-478.564520,-9150.153622
687.259740,-1071.984525,229.710970,-9092.725880
687.262298,-746.560651,382.851616,-9035.298138
687.264857,-784.845813,-1856.830338,-9131.011042
687.267415,-669.990328,19.142581,-9054.440718
687.269973,478.564520,-1052.841944,-9169.296203
687.272532,76.570323,708.275490,-9073.583299
687.275090,363.709035,-133.998066,-9131.011042
687.277649,19.142581,-555.134843,-9092.725880
687.280207,-344.566454,-631.705166,-8901.300072
687.282766,-1875.972918,1512.263883,-8882.157491
687.285324,-2756.531635,382.851616,-9131.011042
687.287882,-1856.830338,1014.556782,-9111.868461
687.290441,-1205.982590,-631.705166,-9169.296203
687.292999,-918.843878,2239.681954,-8977.870395
687.295558,-976.271621,593.420005,-9035.298138
687.298116,-746.560651,440.279358,-9016.155557
687.300674,-478.564520,-803.988394,-9054.440718
687.303233,-976.271621,57.427742,-9035.298138
687.305791,-1091.127106,995.414202,-8901.300072
687.308350,-1722.832272,2067.398726,-8958.727814
687.310908,-1435.693560,1052.841944,-9035.298138
687.313467,-1722.832272,76.570323,-9092.725880
687.316025,-1186.840010,-612.562586,-9245.866526
687.318583,-765.703232,-555.134843,-9073.583299
687.321142,-1301.695494,-38.285162,-9131.011042
687.323700,-1129.412267,-574.277424,-9035.298138
687.326259,-2163.111630,899.701298,-8977.870395
687.328817,-689.132909,-191.425808,-9150.153622
687.331376,-1741.974853,-784.845813,-9111.868461
687.333934,-38.285162,2450.250342,-9207.581365
687.336492,-918.843878,-861.416136,-9073.583299
687.339051,-1091.127106,3177.668413,-8614.161360
687.341609,-1493.121302,-650.847747,-8997.012976
687.344168,-2316.252277,995.414202,-9073.583299
687.346726,-1033.699363,899.701298,-9188.438784
687.349285,-1761.117434,1129.412267,-8939.585234
687.351843,-1091.127106,1129.412267,-8863.014910
687.354401,-957.129040,-325.423874,-8882.157491
687.356960,-861.416136,19.142581,-9131.011042
687.359519,-114.855485,-899.701298,-9265.009107
687.362079,-880.558717,669.990328,-9131.011042
687.364638,-1665.404530,1435.693560,-8882.157491
687.367198,-1856.830338,1703.689691,-8843.872330
687.369757,-1856.830338,-1416.550979,-8958.727814
687.372317,-1033.699363,-2086.541307,-9150.153622
687.374876,76.570323,1320.838075,-8977.870395
687.377436,708.275490,-957.129040,-9073.583299
687.379995,-191.425808,631.705166,-8920.442653
687.382555,440.279358,-1531.406464,-9131.011042
687.385114,-401.994197,-1301.695494,-9169.296203
687.387674,-861.416136,-937.986459,-9207.581365
687.390233,-344.566454,-1225.125171,-8977.870395
687.392793,-1052.841944,325.423874,-8997.012976
687.395352,38.285162,-995.414202,-9016.155557
687.397912,-689.132909,880.558717,-9111.868461
687.400471,38.285162,-459.421939,-9265.009107
687.403031,-325.423874,-803.988394,-9131.011042
687.405590,-306.281293,-1933.400661,-9169.296203
687.408150,-344.566454,-765.703232,-9073.583299
687.410709,-382.851616,-746.560651,-9054.440718
687.413269,-191.425808,248.853550,-9245.866526
687.415828,-421.136778,-1684.547110,-9360.722011
687.418388,-1952.543242,1167.697429,-9111.868461
687.420947,-95.712904,-3005.385186,-9265.009107
687.423507,-1339.980656,-555.134843,-8997.012976
687.426066,-861.416136,1129.412267,-9150.153622
687.428626,421.136778,-1301.695494,-8824.729749
687.431185,-191.425808,1378.265818,-8939.585234
687.433745,555.134843,-2947.957443,-9456.434915
687.436304,-153.140646,880.558717,-8920.442653
687.438864,1110.269686,-2220.539373,-9092.725880
687.441423,-976.271621,727.418070,-9035.298138
687.443983,-267.996131,-133.998066,-9035.298138
687.446542,-1588.834206,-708.275490,-9092.725880
687.449102,-689.132909,-1550.549045,-9245.866526
687.451661,-382.851616,-995.414202,-9188.438784
687.454221,229.710970,-516.849682,-9054.440718
687.456780,363.709035,344.566454,-9035.298138
687.459340,-267.996131,325.423874,-9016.155557
687.461900,153.140646,-1933.400661,-9169.296203
687.464460,-497.707101,95.712904,-8939.585234
687.467020,-708.275490,1378.265818,-8824.729749
687.469580,-2469.392923,229.710970,-8958.727814
687.472140,-2182.254211,612.562586,-9073.583299
687.474700,-1301.695494,-172.283227,-9150.153622
687.477260,-459.421939,1512.263883,-9035.298138
687.479820,-861.416136,1014.556782,-9016.155557
687.482380,-516.849682,937.986459,-8977.870395
687.484940,-746.560651,-1110.269686,-9073.583299
687.487500,-1148.554848,95.712904,-8958.727814
687.490061,-1110.269686,555.134843,-9054.440718
687.492621,-1512.263883,2392.822600,-8977.870395
687.495181,-1684.547110,1129.412267,-8958.727814
687.497741,-1627.119368,784.845813,-9073.583299
687.500301,-1263.410333,-191.425808,-9035.298138
687.502861,-1071.984525,-440.279358,-9035.298138
687.505421,-497.707101,-133.998066,-8958.727814
687.507981,-1531.406464,2890.529701,-8939.585234
687.510541,-497.707101,382.851616,-8958.727814
687.513101,-1071.984525,-1359.123237,-8977.870395
687.515661,-1091.127106,-1014.556782,-9207.581365
687.518222,-287.138712,2067.398726,-9016.155557
687.520782,-976.271621,746.560651,-8939.585234
687.523342,-1990.828403,784.845813,-8901.300072
687.525902,-1933.400661,-325.423874,-9054.440718
687.528462,-2258.824534,172.283227,-9111.868461
687.531022,-1722.832272,1531.406464,-9073.583299
687.533582,-1225.125171,1052.841944,-9016.155557
687.536142,-650.847747,267.996131,-8977.870395
687.538702,-535.992262,-765.703232,-8997.012976
687.541262,-631.705166,899.701298,-9092.725880
687.543822,19.142581,957.129040,-9092.725880
687.546382,-1588.834206,1856.830338,-8977.870395
687.548943,-1780.260014,1129.412267,-8958.727814
687.551503,-2239.681954,-1378.265818,-8920.442653
687.554063,-1263.410333,-765.703232,-9016.155557
687.556623,191.425808,19.142581,-8997.012976
687.559183,1033.699363,1818.545176,-9035.298138
687.561743,1435.693560,-1225.125171,-8901.300072
687.564304,267.996131,727.418070,-9016.155557
687.566865,-76.570323,-2201.396792,-9188.438784
687.569425,-1091.127106,-363.709035,-9073.583299
687.571986,-593.420005,-1225.125171,-9207.581365
687.574547,-1244.267752,344.566454,-9073.583299
687.577108,19.142581,-861.416136,-9111.868461
687.579668,-555.134843,191.425808,-9188.438784
687.582229,191.425808,-191.425808,-9245.866526
687.584790,0.000000,-1071.984525,-9111.868461
687.587351,-248.853550,-1627.119368,-9111.868461
687.589911,-248.853550,-1741.974853,-9207.581365
687.592472,-382.851616,306.281293,-8977.870395
687.595033,19.142581,612.562586,-9188.438784
687.597594,95.712904,-1397.408398,-9169.296203
687.600155,-1052.841944,-478.564520,-9073.583299
687.602715,-421.136778,-2507.678085,-9131.011042
687.605276,-1282.552914,-497.707101,-9073.583299
687.607837,-478.564520,287.138712,-8901.300072
687.610398,-76.570323,-1703.689691,-9131.011042
687.612958,555.134843,-76.570323,-9169.296203
687.615519,516.849682,-2048.256146,-9284.151688
687.618080,133.998066,555.134843,-8939.585234
687.620641,19.142581,-421.136778,-8958.727814
687.623202,-1244.267752,287.138712,-8901.300072
687.625762,-689.132909,-1454.836141,-9150.153622
687.628323,-918.843878,-1435.693560,-9188.438784
687.630884,-516.849682,-746.560651,-9265.009107
687.633445,-95.712904,-593.420005,-9016.155557
687.636005,-95.712904,1282.552914,-8901.300072
687.638566,497.707101,-1359.123237,-9073.583299
687.641127,95.712904,-516.849682,-9188.438784
687.643688,-995.414202,-555.134843,-9054.440718
687.646248,-1091.127106,2469.392923,-8824.729749
687.648809,-1282.552914,-382.851616,-8958.727814
687.651370,-2584.248408,1148.554848,-8997.012976
687.653931,-1378.265818,-191.425808,-9131.011042
687.656492,-861.416136,1129.412267,-8997.012976
687.659052,-593.420005,899.701298,-9035.298138
687.661613,229.710970,19.142581,-8997.012976
687.664174,-1091.127106,-784.845813,-8920.442653
687.666736,-1052.841944,38.285162,-9035.298138
687.669297,-1512.263883,1244.267752,-8863.014910
687.671859,-1512.263883,1703.689691,-8977.870395
687.674420,-1875.972918,555.134843,-9054.440718
687.676982,-1703.689691,-153.140646,-9111.868461
687.679543,-861.416136,95.712904,-9073.583299
687.682105,-497.707101,1225.125171,-9111.868461
687.684666,325.423874,-401.994197,-9016.155557
687.687228,-1607.976787,401.994197,-8824.729749
687.689789,-669.990328,3713.660675,-8863.014910
687.692350,555.134843,-1512.263883,-9092.725880
687.694912,-976.271621,-1014.556782,-9054.440718
687.697473,-287.138712,2009.970984,-8824.729749
687.700035,-1780.260014,880.558717,-8882.157491
687.702596,-2431.107762,2182.254211,-8824.729749
687.705158,-1665.404530,267.996131,-9092.725880
687.707719,-1856.830338,1473.978722,-8920.442653
687.710281,-976.271621,-689.132909,-9131.011042
687.712842,-918.843878,325.423874,-8977.870395
687.715403,76.570323,267.996131,-8939.585234
687.717965,-497.707101,440.279358,-8958.727814
687.720526,-1473.978722,2335.394858,-8863.014910
687.723088,-1014.556782,784.845813,-9131.011042
687.725649,-1703.689691,248.853550,-9016.155557
687.728211,-1914.258080,-2105.683888,-9226.723946
687.730772,-1799.402595,1856.830338,-9016.155557
687.733334,-555.134843,-880.558717,-9188.438784
687.735895,-133.998066,421.136778,-9111.868461
687.738456,1014.556782,-1933.400661,-9322.436850
687.741018,478.564520,-459.421939,-9016.155557
687.743579,-38.285162,-1416.550979,-9035.298138
687.746141,-765.703232,38.285162,-8882.157491
687.748702,-1263.410333,-708.275490,-9131.011042
687.751264,-459.421939,-1091.127106,-9131.011042
687.753825,-421.136778,478.564520,-9131.011042
687.756387,-38.285162,-344.566454,-9207.581365
687.758948,0.000000,-191.425808,-9016.155557
687.761509,0.000000,-1512.263883,-9035.298138
687.764071,-344.566454,-191.425808,-8882.157491
687.766632,-153.140646,-1512.263883,-9150.153622
687.769194,-459.421939,-727.418070,-8901.300072
687.771757,-2105.683888,861.416136,-9016.155557
687.774319,-191.425808,-478.564520,-9169.296203
687.776881,-727.418070,880.558717,-9016.155557
687.779443,593.420005,-650.847747,-8939.585234
687.782005,-842.273555,-708.275490,-9073.583299
687.784567,153.140646,-19.142581,-8901.300072
687.787129,172.283227,-765.703232,-9169.296203
687.789691,325.423874,191.425808,-9111.868461
687.792253,210.568389,-1799.402595,-9169.296203
687.794816,-918.843878,421.136778,-8863.014910
687.797378,-363.709035,-555.134843,-9111.868461
687.799940,-708.275490,-784.845813,-9073.583299
687.802502,-382.851616,-995.414202,-9150.153622
687.805064,-344.566454,-746.560651,-9188.438784
687.807626,172.283227,0.000000,-9035.298138
687.810188,-19.142581,-421.136778,-8997.012976
687.812750,-19.142581,-421.136778,-9092.725880
687.815312,19.142581,-1531.406464,-9111.868461
687.817875,-1933.400661,2258.824534,-8901.300072
687.820437,-2354.537438,-497.707101,-9073.583299
687.822999,-1684.547110,1550.549045,-8977.870395
687.825561,-1473.978722,-229.710970,-9150.153622
687.828123,-1569.691626,1607.976787,-9035.298138
687.830685,-1033.699363,689.132909,-9016.155557
687.833247,-784.845813,650.847747,-8997.012976
687.835809,-650.847747,-57.427742,-9054.440718
687.838371,-440.279358,-727.418070,-9016.155557
687.840934,-1091.127106,861.416136,-8920.442653
687.843496,-1225.125171,1684.547110,-8939.585234
687.846058,-1722.832272,1818.545176,-8958.727814
687.848620,-1818.545176,440.279358,-9188.438784
687.851182,-1301.695494,-210.568389,-9188.438784
687.853744,-459.421939,-229.710970,-9016.155557
687.856306,-1186.840010,-1607.976787,-9188.438784
687.858868,-1646.261949,3751.945837,-8882.157491
687.861430,-1129.412267,-3311.666478,-9131.011042
687.863993,-1205.982590,4900.500685,-9016.155557
687.866555,-344.566454,-1875.972918,-9399.007173
687.869117,-1607.976787,-1588.834206,-8977.870395
687.871679,-1339.980656,2507.678085,-8805.587168
687.874242,-2258.824534,440.279358,-8939.585234
687.876804,-2890.529701,2469.392923,-8920.442653
687.879367,-995.414202,-1186.840010,-9226.723946
687.881929,-1129.412267,1282.552914,-9054.440718
687.884491,-38.285162,-1531.406464,-9169.296203
687.887054,-1186.840010,1397.408398,-9016.155557
687.889616,-669.990328,1550.549045,-8882.157491
687.892179,-1129.412267,1607.976787,-8843.872330
687.894741,-2029.113565,708.275490,-9054.440718
687.897304,-1416.550979,-1895.115499,-9131.011042
687.899866,-1225.125171,516.849682,-9169.296203
687.902429,-306.281293,-650.847747,-8939.585234
687.904991,459.421939,1186.840010,-8977.870395
687.907553,803.988394,-2182.254211,-9092.725880
687.910116,650.847747,899.701298,-9265.009107
687.912678,287.138712,-2679.961312,-9245.866526
687.915241,-995.414202,-325.423874,-8882.157491
687.917803,-612.562586,-803.988394,-8958.727814
687.920366,-1282.552914,210.568389,-8977.870395
687.922928,-38.285162,-363.709035,-9226.723946
687.925491,-306.281293,-267.996131,-9150.153622
687.928053,-210.568389,1129.412267,-9016.155557
687.930615,344.566454,-1205.982590,-9188.438784
687.933178,-478.564520,-344.566454,-8997.012976
687.935740,76.570323,-1933.400661,-9073.583299
687.938303,-937.986459,-593.420005,-8997.012976
687.940865,-191.425808,2488.535504,-9035.298138
687.943428,-76.570323,-4383.651003,-9284.151688
687.945990,-2258.824534,1071.984525,-8652.446522
687.948553,823.130974,574.277424,-9092.725880
687.951115,-555.134843,-1780.260014,-8748.159426
687.953677,248.853550,1148.554848,-9054.440718
687.956240,459.421939,-2067.398726,-9207.581365
687.958802,306.281293,2316.252277,-8863.014910
687.961365,727.418070,-2431.107762,-9073.583299
687.963927,-803.988394,1397.408398,-8729.016845
687.966490,153.140646,-1473.978722,-9073.583299
687.969052,-784.845813,-478.564520,-9188.438784
687.971615,-191.425808,-172.283227,-9188.438784
687.974177,-153.140646,-957.129040,-9150.153622
687.976740,-612.562586,746.560651,-9092.725880
687.979303,191.425808,-1320.838075,-9054.440718
687.981866,-440.279358,-612.562586,-9150.153622
687.984429,-880.558717,114.855485,-8997.012976
687.986992,-803.988394,2009.970984,-8805.587168
687.989555,-784.845813,-210.568389,-8997.012976
687.992117,-1990.828403,574.277424,-9092.725880
687.994680,-1780.260014,76.570323,-9226.723946
687.997243,-1225.125171,1397.408398,-8939.585234
687.999806,-1244.267752,1052.841944,-8977.870395
688.002369,-669.990328,593.420005,-8939.585234
688.004932,-937.986459,-708.275490,-9016.155557
688.007495,-708.275490,344.566454,-9073.583299
688.010058,-1244.267752,516.849682,-8977.870395
688.012620,-1205.982590,2297.109696,-8863.014910
688.015183,-1665.404530,669.990328,-8977.870395
688.017746,-2143.969050,478.564520,-8901.300072
688.020309,-1454.836141,-1301.695494,-9341.579430
688.022872,-746.560651,-784.845813,-9035.298138
688.025435,-497.707101,5359.922624,-9035.298138
688.027998,-803.988394,-5417.350366,-8786.444587
688.030560,-1856.830338,6317.051664,-8690.731683
688.033123,-38.285162,-2871.387120,-9265.009107
688.035686,-1856.830338,3235.096155,-9150.153622
688.038249,-382.851616,-325.423874,-8901.300072
688.040812,-3464.807125,2718.246474,-8595.018779
688.043375,-2507.678085,2258.824534,-8977.870395
688.045938,-1167.697429,-1741.974853,-9322.436850
688.048501,-880.558717,1799.402595,-9073.583299
688.051063,325.423874,-1990.828403,-9245.866526
688.053626,-1416.550979,2469.392923,-8997.012976
688.056189,76.570323,421.136778,-8843.872330
688.058752,-1971.685822,2277.967115,-8709.874264
688.061315,-2124.826469,-516.849682,-9073.583299
688.063878,-1167.697429,-1473.978722,-9188.438784
688.066440,-1435.693560,2258.824534,-9284.151688
688.069003,-669.990328,-2067.398726,-9284.151688
688.071566,344.566454,1818.545176,-8805.587168
688.074129,880.558717,-2086.541307,-8939.585234
688.076692,535.992262,976.271621,-9016.155557
688.079255,535.992262,-2124.826469,-9169.296203
688.081818,-631.705166,76.570323,-8920.442653
688.084380,-1186.840010,-1071.984525,-9035.298138
688.086943,-1071.984525,-669.990328,-9035.298138
688.089506,-382.851616,-248.853550,-9169.296203
688.092069,-19.142581,-306.281293,-9245.866526
688.094632,210.568389,248.853550,-9092.725880
688.097195,38.285162,-842.273555,-8901.300072
688.099757,-363.709035,-267.996131,-8920.442653
688.102320,-669.990328,-1148.554848,-9226.723946
688.104883,153.140646,2373.680019,-8939.585234
688.107446,-153.140646,-3177.668413,-9054.440718
688.110009,-1627.119368,3732.803256,-8843.872330
688.112572,1703.689691,-4747.360038,-9265.009107
688.115135,-1933.400661,612.562586,-8920.442653
688.117697,1129.412267,-2239.681954,-9245.866526
688.120260,76.570323,-976.271621,-9150.153622
688.122823,823.130974,1320.838075,-8824.729749
688.125386,229.710970,-2660.818731,-9226.723946
688.127949,-516.849682,1339.980656,-8767.302006
688.130512,-153.140646,-2890.529701,-9207.581365
688.133074,-1014.556782,842.273555,-9150.153622
688.135637,267.996131,-1531.406464,-9226.723946
688.138200,-1052.841944,746.560651,-9073.583299
688.140763,-401.994197,95.712904,-9092.725880
688.143326,248.853550,-1320.838075,-9169.296203
688.145889,-19.142581,-689.132909,-9131.011042
688.148451,-880.558717,612.562586,-8939.585234
688.151014,-1454.836141,2163.111630,-8671.589102
688.153577,-593.420005,57.427742,-9016.155557
688.156140,-2124.826469,535.992262,-9054.440718
688.158703,-1971.685822,1091.127106,-9265.009107
688.161266,-1110.269686,784.845813,-8920.442653
688.163829,-1397.408398,1837.687757,-8939.585234
688.166391,-267.996131,-306.281293,-8997.012976
688.168954,-1397.408398,-440.279358,-9073.583299
688.171517,-382.851616,114.855485,-9092.725880
688.174080,-1359.123237,765.703232,-8920.442653
688.176643,-1110.269686,2124.826469,-8939.585234
688.179206,-1761.117434,1110.269686,-8824.729749
688.181769,-2354.537438,248.853550,-9035.298138
688.184332,-842.273555,1091.127106,-9054.440718
688.186894,784.845813,497.707101,-9303.294269
688.189457,-459.421939,1646.261949,-8748.159426
688.192020,-689.132909,612.562586,-8939.585234
688.194583,-880.558717,-574.277424,-8690.731683
688.197146,-1531.406464,2258.824534,-9150.153622
688.199709,-1550.549045,-516.849682,-9322.436850
688.202272,-2737.389054,1684.547110,-8767.302006
688.204835,-1454.836141,784.845813,-9073.583299
688.207397,-1933.400661,1052.841944,-8958.727814
688.209960,-401.994197,76.570323,-9245.866526
688.212523,-746.560651,-306.281293,-9169.296203
688.215086,-421.136778,497.707101,-9092.725880
688.217649,-803.988394,1339.980656,-8882.157491
688.220212,-1761.117434,1780.260014,-8748.159426
688.222775,-1780.260014,-325.423874,-8920.442653
688.225338,-1799.402595,-1990.828403,-9131.011042
688.227900,-1301.695494,2431.107762,-9207.581365
688.230463,-516.849682,-2048.256146,-9360.722011
688.233026,478.564520,1607.976787,-8939.585234
688.235589,899.701298,-1971.685822,-9111.868461
688.238152,-153.140646,-133.998066,-8997.012976
688.240715,210.568389,-1646.261949,-9092.725880
688.243278,-574.277424,19.142581,-8977.870395
688.245841,-784.845813,-803.988394,-9016.155557
688.248403,-1033.699363,-535.992262,-8939.585234
688.250966,-555.134843,-727.418070,-9150.153622
688.253529,306.281293,-363.709035,-9245.866526
688.256092,267.996131,497.707101,-9111.868461
688.258655,-114.855485,-2124.826469,-9131.011042
688.261218,-440.279358,-76.570323,-8939.585234
688.263781,57.427742,-2297.109696,-9341.579430
688.266344,-1550.549045,-401.994197,-9092.725880
688.268906,-1091.127106,-363.709035,-9092.725880
688.271469,-574.277424,1301.695494,-9092.725880
688.274032,344.566454,-708.275490,-9150.153622
688.276595,191.425808,-1110.269686,-9054.440718
688.279158,267.996131,-38.285162,-9073.583299
688.281721,918.843878,-1071.984525,-9303.294269
688.284284,-421.136778,287.138712,-9169.296203
688.286847,19.142581,-995.414202,-9054.440718
688.289409,-823.130974,-1071.984525,-8958.727814
688.291972,210.568389,-708.275490,-9073.583299
688.294535,-306.281293,-708.275490,-9169.296203
688.297098,-325.423874,574.277424,-9092.725880
688.299661,-440.279358,38.285162,-9092.725880
688.302224,-382.851616,-899.701298,-9131.011042
688.304787,363.709035,-1320.838075,-9169.296203
688.307350,-421.136778,306.281293,-8997.012976
688.309913,-669.990328,1895.115499,-8767.302006
688.312475,-1282.552914,38.285162,-8882.157491
688.315038,-2220.539373,497.707101,-9016.155557
688.317601,-1512.263883,19.142581,-9188.438784
688.320164,-1454.836141,1320.838075,-9016.155557
688.322727,-957.129040,1110.269686,-8977.870395
688.325290,-1033.699363,784.845813,-9054.440718
688.327853,-995.414202,-382.851616,-9035.298138
688.330416,-459.421939,19.142581,-9092.725880
688.332979,-1033.699363,880.558717,-9016.155557
688.335542,-976.271621,1933.400661,-8901.300072
688.338104,-1741.974853,191.425808,-9035.298138
688.340667,-1990.828403,114.855485,-9073.583299
688.343230,-1512.263883,-1684.547110,-9284.151688
688.345793,-880.558717,765.703232,-9169.296203
688.348356,555.134843,2086.541307,-9092.725880
688.350919,-784.845813,-1301.695494,-8958.727814
688.353482,-1990.828403,95.712904,-8920.442653
688.356045,-899.701298,669.990328,-8997.012976
688.358608,-2469.392923,650.847747,-8958.727814
688.361170,-1780.260014,1339.980656,-8920.442653
688.363734,-1856.830338,-153.140646,-8920.442653
688.366297,-1167.697429,1416.550979,-8939.585234
688.368860,-880.558717,-1033.699363,-9188.438784
688.371423,-803.988394,1320.838075,-9054.440718
688.373986,-133.998066,1493.121302,-9054.440718
688.376549,-1378.265818,1588.834206,-8920.442653
688.379112,-1397.408398,363.709035,-8863.014910
688.381676,-2239.681954,-1263.410333,-8958.727814
688.384239,-1320.838075,-210.568389,-9016.155557
688.386802,-306.281293,555.134843,-9035.298138
688.389365,899.701298,-57.427742,-9188.438784
688.391928,612.562586,-2431.107762,-9035.298138
688.394491,650.847747,689.132909,-8997.012976
688.397054,478.564520,-2029.113565,-9150.153622
688.399618,-937.986459,401.994197,-8920.442653
688.402181,-555.134843,-1550.549045,-9111.868461
688.404744,-1167.697429,-114.855485,-8977.870395
688.407307,-344.566454,-1282.552914,-9054.440718
688.409870,-76.570323,-191.425808,-9111.868461
688.412433,76.570323,-248.853550,-9169.296203
688.414996,210.568389,-325.423874,-9226.723946
688.417560,153.140646,-650.847747,-8901.300072
688.420123,-382.851616,57.427742,-9092.725880
688.422686,-95.712904,-2105.683888,-9131.011042
688.425249,-1435.693560,650.847747,-8958.727814
688.427812,440.279358,-689.132909,-9188.438784
688.430375,-95.712904,-2699.103893,-9360.722011
688.432938,-306.281293,-363.709035,-9073.583299
688.435501,267.996131,-3005.385186,-9456.434915
688.438065,-95.712904,1301.695494,-9131.011042
688.440628,1473.978722,-1473.978722,-9169.296203
688.443191,-727.418070,287.138712,-8977.870395
688.445754,153.140646,-2124.826469,-8997.012976
688.448317,-1301.695494,-1741.974853,-9035.298138
688.450880,-363.709035,593.420005,-9073.583299
688.453443,-114.855485,-344.566454,-9150.153622
688.456007,-784.845813,708.275490,-8863.014910
688.458570,248.853550,-1799.402595,-9226.723946
688.461133,-363.709035,-612.562586,-9188.438784
688.463696,-823.130974,689.132909,-9035.298138
688.466259,-1493.121302,1646.261949,-8748.159426
688.468822,-1914.258080,1435.693560,-9073.583299
688.471385,-1799.402595,-765.703232,-9054.440718
688.473948,-1933.400661,1167.697429,-9016.155557
688.476510,-1167.697429,191.425808,-9073.583299
688.479073,-1186.840010,2182.254211,-9016.155557
688.481636,-459.421939,-229.710970,-9092.725880
688.484199,-1052.841944,-248.853550,-9016.155557
688.486762,-612.562586,784.845813,-9035.298138
688.489325,-784.845813,689.132909,-8939.585234
688.491888,-1378.265818,1722.832272,-8920.442653
688.494450,-1741.974853,535.992262,-8997.012976
688.497013,-1703.689691,382.851616,-8977.870395
688.499576,-689.132909,-918.843878,-9169.296203
688.502139,-382.851616,248.853550,-9169.296203
688.504702,-535.992262,1703.689691,-8863.014910
688.507265,-516.849682,2354.537438,-8595.018779
688.509828,-1627.119368,1493.121302,-8920.442653
688.512391,-1627.119368,784.845813,-8997.012976
688.514953,-2239.681954,899.701298,-8901.300072
688.517516,-1856.830338,516.849682,-8920.442653
688.520079,-1282.552914,593.420005,-9073.583299
688.522642,-765.703232,535.992262,-9150.153622
688.525205,-363.709035,689.132909,-8958.727814
688.527768,-631.705166,2545.963246,-8920.442653
688.530331,-650.847747,631.705166,-8939.585234
688.532894,-1761.117434,1091.127106,-8920.442653
688.535456,-1741.974853,-1569.691626,-9035.298138
688.538019,-1607.976787,1129.412267,-9035.298138
688.540582,-535.992262,-1263.410333,-9035.298138
688.543145,918.843878,937.986459,-9073.583299
688.545708,746.560651,-1895.115499,-9111.868461
688.548271,842.273555,516.849682,-9054.440718
688.550834,191.425808,-1875.972918,-9054.440718
688.553397,-784.845813,95.712904,-8824.729749
688.555959,-689.132909,-1320.838075,-9150.153622
688.558522,-918.843878,-57.427742,-9092.725880
688.561085,-95.712904,-1473.978722,-9169.296203
688.563648,-497.707101,-344.566454,-9150.153622
688.566211,133.998066,-38.285162,-9035.298138
688.568774,114.855485,-133.998066,-9150.153622
688.571336,229.710970,267.996131,-8843.872330
688.573899,344.566454,-2143.969050,-9054.440718
688.576462,-2603.390989,-2163.111630,-8997.012976
688.579025,-899.701298,2737.389054,-9054.440718
688.581588,842.273555,-2813.959378,-9265.009107
688.584151,-1282.552914,1186.840010,-9016.155557
688.586713,976.271621,-2086.541307,-9111.868461
688.589276,-191.425808,38.285162,-9073.583299
688.591839,1148.554848,363.709035,-9131.011042
688.594402,191.425808,-1665.404530,-9188.438784
688.596965,0.000000,38.285162,-8901.300072
688.599527,-574.277424,-2507.678085,-9265.009107
688.602090,-823.130974,842.273555,-8863.014910
688.604653,57.427742,-574.277424,-9188.438784
688.607216,-1244.267752,612.562586,-9016.155557
688.609779,248.853550,-1225.125171,-9169.296203
688.612341,76.570323,-746.560651,-9073.583299
688.614904,-918.843878,803.988394,-9092.725880
688.617467,-746.560651,1493.121302,-8786.444587
688.620030,-880.558717,459.421939,-8939.585234
688.622593,-1761.117434,459.421939,-8997.012976
688.625155,-1895.115499,861.416136,-9092.725880
688.627718,-1588.834206,784.845813,-8958.727814
688.630281,-1244.267752,1646.261949,-8786.444587
688.632844,-976.271621,459.421939,-9073.583299
688.635407,-803.988394,-19.142581,-9131.011042
688.637969,-516.849682,76.570323,-9073.583299
688.640532,-957.129040,842.273555,-9073.583299
688.643095,-1110.269686,1416.550979,-8767.302006
688.645658,-1933.400661,1033.699363,-8958.727814
688.648221,-2603.390989,-1320.838075,-8920.442653
688.650783,-1225.125171,2833.101958,-9111.868461
688.653346,555.134843,861.416136,-9188.438784
688.655909,-306.281293,976.271621,-9111.868461
688.658472,-1435.693560,248.853550,-8786.444587
688.661035,-1646.261949,1339.980656,-8901.300072
688.663597,-2297.109696,440.279358,-9035.298138
688.666160,-2143.969050,708.275490,-8882.157491
688.668723,-1186.840010,746.560651,-8977.870395
688.671285,-1569.691626,612.562586,-8882.157491
688.673848,-478.564520,976.271621,-9035.298138
688.676411,-631.705166,401.994197,-9016.155557
688.678974,-823.130974,1167.697429,-9016.155557
688.681537,-1033.699363,516.849682,-9035.298138
688.684100,-1837.687757,-153.140646,-8997.012976
688.686663,-1225.125171,-1052.841944,-9054.440718
688.689226,-1531.406464,1569.691626,-8920.442653
688.691788,-459.421939,-1282.552914,-9207.581365
688.694351,57.427742,-133.998066,-9073.583299
688.696914,1320.838075,-1167.697429,-9207.581365
688.699477,344.566454,-401.994197,-9111.868461
688.702040,-325.423874,-19.142581,-8997.012976
688.704603,-344.566454,-937.986459,-8958.727814
688.707166,-1110.269686,-287.138712,-9092.725880
688.709729,-497.707101,-1359.123237,-9188.438784
688.712291,-593.420005,-574.277424,-9016.155557
688.714854,248.853550,-765.703232,-9092.725880
688.717417,-76.570323,0.000000,-9226.723946
688.719980,344.566454,-1033.699363,-9073.583299
688.722543,-746.560651,-459.421939,-8920.442653
688.725106,-631.705166,-133.998066,-8939.585234
688.727669,-669.990328,-421.136778,-8939.585234
688.730232,-861.416136,2143.969050,-9016.155557
688.732794,612.562586,-1895.115499,-9131.011042
688.735357,-325.423874,918.843878,-8709.874264
688.737920,650.847747,-2201.396792,-9169.296203
688.740483,0.000000,-765.703232,-9265.009107
688.743046,555.134843,-574.277424,-9169.296203
688.745609,133.998066,-1416.550979,-9111.868461
688.748172,0.000000,210.568389,-8958.727814
688.750735,-727.418070,-1397.408398,-9131.011042
688.753298,-650.847747,516.849682,-9035.298138
688.755860,-650.847747,-344.566454,-9092.725880
688.758423,-325.423874,-765.703232,-9073.583299
688.760986,401.994197,-957.129040,-9016.155557
688.763549,-1397.408398,1895.115499,-9035.298138
688.766112,-1646.261949,1378.265818,-8997.012976
688.768675,-765.703232,765.703232,-8901.300072
688.771238,-2048.256146,19.142581,-8997.012976
688.773783,-1627.119368,287.138712,-9169.296203
688.776329,-1761.117434,1148.554848,-8824.729749
688.778875,-1588.834206,1914.258080,-8997.012976
688.781421,-631.705166,76.570323,-9035.298138
688.783966,-976.271621,210.568389,-9131.011042
688.786512,-421.136778,-114.855485,-9092.725880
688.789058,-1244.267752,937.986459,-8939.585234
688.791603,-1091.127106,1665.404530,-8767.302006
688.794149,-2220.539373,19.142581,-9035.298138
688.796695,-1875.972918,2048.256146,-8901.300072
688.799241,784.845813,-76.570323,-9150.153622
688.801786,-210.568389,57.427742,-9111.868461
688.804332,-861.416136,765.703232,-8805.587168
688.806878,-1741.974853,1952.543242,-8709.874264
688.809424,-1780.260014,689.132909,-8901.300072
688.811969,-2335.394858,1014.556782,-9073.583299
688.814515,-1493.121302,-153.140646,-8977.870395
688.817061,-1454.836141,172.283227,-8939.585234
688.819606,-823.130974,1263.410333,-9035.298138
688.822152,-650.847747,38.285162,-9150.153622
688.824698,-957.129040,1799.402595,-8939.585234
688.827244,-803.988394,440.279358,-9092.725880
688.829789,-1493.121302,689.132909,-9035.298138
688.832335,-1244.267752,-1761.117434,-9111.868461
688.834881,-1569.691626,2316.252277,-8958.727814
688.837427,-1014.556782,-1512.263883,-9226.723946
688.839972,76.570323,574.277424,-8997.012976
688.842518,995.414202,-2297.109696,-9226.723946
688.845064,382.851616,-95.712904,-9226.723946
688.847609,363.709035,-1320.838075,-9016.155557
688.850155,-325.423874,229.710970,-8863.014910
688.852701,-784.845813,-555.134843,-9016.155557
688.855247,-363.709035,-1244.267752,-9207.581365
688.857792,-478.564520,-478.564520,-9150.153622
688.860338,-38.285162,-1167.697429,-9207.581365
688.862884,57.427742,248.853550,-9150.153622
688.865429,555.134843,-440.279358,-9035.298138
688.867975,-114.855485,-918.843878,-9379.864592
688.870521,-1627.119368,-2086.541307,-9150.153622
688.873067,-880.558717,-861.416136,-9111.868461
688.875615,497.707101,-2469.392923,-9207.581365
688.878163,-1225.125171,401.994197,-9169.296203
688.880710,440.279358,-1569.691626,-9016.155557
688.883258,76.570323,-650.847747,-9131.011042
688.885806,1014.556782,-1205.982590,-9360.722011
688.888354,57.427742,-1186.840010,-9131.011042
688.890902,440.279358,-784.845813,-9092.725880
688.893450,-382.851616,-976.271621,-8977.870395
688.895998,-995.414202,153.140646,-9035.298138
688.898546,-631.705166,-363.709035,-9054.440718
688.901094,-1014.556782,-382.851616,-9073.583299
688.903642,631.705166,-1167.697429,-9207.581365
688.906190,-153.140646,-363.709035,-8977.870395
688.908738,-535.992262,2411.965181,-8920.442653
688.911286,-1990.828403,401.994197,-8920.442653
688.913834,-1875.972918,1952.543242,-8997.012976
688.916382,-1359.123237,-1263.410333,-9188.438784
688.918929,-2105.683888,2182.254211,-8997.012976
688.921477,-1397.408398,229.710970,-9016.155557
688.924025,-1627.119368,1933.400661,-8882.157491
688.926573,-421.136778,-172.283227,-9150.153622
688.929121,-1148.554848,114.855485,-9054.440718
688.931669,-191.425808,287.138712,-9073.583299
688.934217,-899.701298,-210.568389,-9035.298138
688.936765,-1780.260014,2201.396792,-8843.872330
688.939313,-1339.980656,-1091.127106,-9092.725880
688.941861,-2890.529701,1052.841944,-9150.153622
688.944409,516.849682,172.283227,-9456.434915
688.946957,-784.845813,-1282.552914,-9016.155557
688.949505,-1148.554848,2450.250342,-8882.157491
688.952053,-1110.269686,-478.564520,-8690.731683
688.954601,-3062.812928,1895.115499,-8690.731683
688.957149,-1339.980656,38.285162,-9131.011042
688.959696,-1990.828403,612.562586,-8997.012976
688.962244,-823.130974,957.129040,-9073.583299
688.964792,-1205.982590,57.427742,-8958.727814
688.967340,-803.988394,2297.109696,-8843.872330
688.969888,-612.562586,-133.998066,-8939.585234
688.972436,-1397.408398,784.845813,-9073.583299
688.974984,-1186.840010,-1627.119368,-9188.438784
688.977534,-1741.974853,2105.683888,-8997.012976
688.980084,-957.129040,-1569.691626,-9054.440718
688.982634,-19.142581,1263.410333,-8920.442653
688.985185,516.849682,-2545.963246,-9245.866526
688.987735,1129.412267,535.992262,-9150.153622
688.990285,306.281293,-880.558717,-9092.725880
688.992835,-727.418070,95.712904,-8997.012976
688.995385,-555.134843,-976.271621,-9092.725880
688.997935,-784.845813,-1167.697429,-9111.868461
689.000485,-516.849682,-823.130974,-9207.581365
689.003035,-191.425808,-861.416136,-9245.866526
689.005585,210.568389,-382.851616,-9092.725880
689.008135,0.000000,-669.990328,-9111.868461
689.010686,421.136778,-1378.265818,-9111.868461
689.013236,-1397.408398,-1033.699363,-8824.729749
689.015786,-1339.980656,306.281293,-9054.440718
689.018336,19.142581,-593.420005,-9303.294269
689.020886,172.283227,-497.707101,-9016.155557
689.023436,38.285162,-1091.127106,-9131.011042
689.025986,287.138712,-1205.982590,-9092.725880
689.028536,535.992262,-842.273555,-9245.866526
689.031086,650.847747,-1148.554848,-9169.296203
689.033636,-172.283227,-861.416136,-9054.440718
689.036187,-669.990328,-708.275490,-8997.012976
689.038737,-937.986459,-153.140646,-8977.870395
689.041287,-918.843878,459.421939,-9054.440718
689.043837,-172.283227,-1416.550979,-9245.866526
689.046387,114.855485,-880.558717,-9188.438784
689.048937,-765.703232,918.843878,-8997.012976
689.051487,-1205.982590,1378.265818,-8805.587168
689.054037,-899.701298,823.130974,-8958.727814
689.056587,-2124.826469,344.566454,-9054.440718
689.059137,-1914.258080,114.855485,-9150.153622
689.061688,-1856.830338,918.843878,-8920.442653
689.064238,-1550.549045,1971.685822,-8997.012976
689.066788,-727.418070,0.000000,-9054.440718
689.069338,-899.701298,861.416136,-8977.870395
689.071888,-401.994197,-937.986459,-9150.153622
689.074438,-1339.980656,1205.982590,-9111.868461
689.076988,-803.988394,708.275490,-8805.587168
689.079540,-2277.967115,2871.387120,-8824.729749
689.082092,-612.562586,459.421939,-9131.011042
689.084643,-612.562586,593.420005,-9150.153622
689.087195,-172.283227,1493.121302,-9111.868461
689.089747,-1320.838075,-650.847747,-8958.727814
689.092298,-1780.260014,2545.963246,-8652.446522
689.094850,-1837.687757,-210.568389,-8958.727814
689.097402,-2431.107762,1627.119368,-9111.868461
689.099953,-1359.123237,-497.707101,-9092.725880
689.102505,-1531.406464,1952.543242,-8958.727814
689.105057,-803.988394,-191.425808,-9092.725880
689.107609,-1473.978722,1473.978722,-9016.155557
689.110160,-689.132909,1033.699363,-8939.585234
689.112712,-1110.269686,-631.705166,-8997.012976
689.115264,-1205.982590,-497.707101,-9016.155557
689.117815,-1320.838075,1741.974853,-9092.725880
689.120367,-995.414202,-1167.697429,-8997.012976
689.122919,172.283227,650.847747,-8805.587168
689.125470,593.420005,-1837.687757,-9284.151688
689.128022,689.132909,-325.423874,-9169.296203
689.130574,421.136778,-995.414202,-9111.868461
689.133125,-287.138712,-19.142581,-8997.012976
689.135677,-708.275490,-861.416136,-9073.583299
689.138229,-612.562586,-1225.125171,-9035.298138
689.140781,-823.130974,-937.986459,-9131.011042
689.143332,-114.855485,-459.421939,-9207.581365
689.145884,459.421939,382.851616,-8997.012976
689.148436,421.136778,708.275490,-8824.729749
689.150987,516.849682,-1722.832272,-8977.870395
689.153539,-1531.406464,-631.705166,-8843.872330
689.156091,-421.136778,-1205.982590,-9322.436850
689.158642,-612.562586,-727.418070,-9054.440718
689.161194,-325.423874,-95.712904,-9169.296203
689.163746,574.277424,-1875.972918,-9111.868461
689.166298,421.136778,-478.564520,-9150.153622
689.168849,1205.982590,-1741.974853,-9322.436850
689.171401,-191.425808,-363.709035,-9092.725880
689.173953,229.710970,-842.273555,-9054.440718
689.176504,-1205.982590,-516.849682,-8977.870395
689.179056,-765.703232,114.855485,-9016.155557
689.181609,-803.988394,-1186.840010,-9111.868461
689.184163,-248.853550,-306.281293,-9188.438784
689.186716,210.568389,-803.988394,-9131.011042
689.189269,-803.988394,2526.820666,-8805.587168
689.191823,-708.275490,-325.423874,-8977.870395
689.194376,-1990.828403,1339.980656,-9054.440718
689.196929,-1588.834206,-306.281293,-9131.011042
689.199483,-2105.683888,1416.550979,-8977.870395
689.202036,-1990.828403,1627.119368,-8939.585234
689.204589,-957.129040,287.138712,-9092.725880
689.207143,-650.847747,612.562586,-9092.725880
689.209696,-593.420005,-478.564520,-9226.723946
689.212249,-669.990328,1052.841944,-8997.012976
689.214803,-1301.695494,669.990328,-9016.155557
689.217356,-1052.841944,1952.543242,-8729.016845
689.219909,-2277.967115,-2526.820666,-9131.011042
689.222462,-2813.959378,2756.531635,-9035.298138
689.225016,1167.697429,1052.841944,-9284.151688
689.227569,-1627.119368,-2182.254211,-8920.442653
689.230122,-1091.127106,3675.375514,-8958.727814
689.232676,-2660.818731,-1167.697429,-8709.874264
689.235229,-2833.101958,3177.668413,-9092.725880
689.237782,-727.418070,-1627.119368,-9188.438784
689.240336,-2220.539373,2928.814862,-8882.157491
689.242889,-38.285162,1110.269686,-9054.440718
689.245442,-2029.113565,1665.404530,-8958.727814
689.247996,-210.568389,1014.556782,-8939.585234
689.250549,-574.277424,-535.992262,-9035.298138
689.253102,-1282.552914,-555.134843,-9054.440718
689.255656,-555.134843,1914.258080,-9111.868461
689.258209,-1588.834206,-1454.836141,-9073.583299
689.260762,-229.710970,-325.423874,-8977.870395
689.263316,574.277424,-1493.121302,-9188.438784
689.265869,440.279358,-746.560651,-9169.296203
689.268422,708.275490,-325.423874,-9016.155557
689.270976,-401.994197,-153.140646,-9016.155557
689.273529,-803.988394,-784.845813,-9035.298138
689.276082,-612.562586,-1703.689691,-9150.153622
689.278636,-727.418070,-287.138712,-9016.155557
689.281189,114.855485,-172.283227,-9284.151688
689.283727,401.994197,-19.142581,-9035.298138
689.286264,-172.283227,172.283227,-9073.583299
689.288802,746.560651,-803.988394,-8977.870395
689.291340,-1416.550979,-1014.556782,-8901.300072
689.293878,-765.703232,937.986459,-9016.155557
689.296415,478.564520,-1033.699363,-9188.438784
689.298953,-133.998066,-38.285162,-9188.438784
689.301491,957.129040,-1665.404530,-9188.438784
689.304029,746.560651,-957.129040,-9131.011042
689.306566,1129.412267,-976.271621,-9303.294269
689.309104,287.138712,-823.130974,-9092.725880
689.311642,-478.564520,-76.570323,-8939.585234
689.314179,-1416.550979,-708.275490,-8939.585234
689.316717,-1473.978722,861.416136,-8863.014910
689.319255,248.853550,-1205.982590,-9284.151688
689.321793,-76.570323,-535.992262,-9207.581365
689.324330,-497.707101,2067.398726,-9035.298138
689.326868,-1512.263883,650.847747,-8824.729749
689.329406,-784.845813,995.414202,-8939.585234
689.331944,-1569.691626,-248.853550,-9035.298138
689.334481,-2124.826469,535.992262,-9092.725880
689.337019,-1875.972918,784.845813,-8939.585234
689.339557,-2086.541307,2431.107762,-8920.442653
689.342095,-593.420005,267.996131,-9054.440718
689.344632,-727.418070,363.709035,-9111.868461
689.347170,-363.709035,-535.992262,-9245.866526
689.349708,-842.273555,382.851616,-9016.155557
689.352246,-1646.261949,516.849682,-8997.012976
689.354783,-2718.246474,1875.972918,-8824.729749
689.357321,-1339.980656,191.425808,-9169.296203
689.359859,287.138712,689.132909,-9245.866526
689.362397,-1378.265818,-153.140646,-9131.011042
689.364934,-1263.410333,1512.263883,-8805.587168
689.367472,-2086.541307,1359.123237,-8786.444587
689.370010,-2699.103893,574.277424,-9054.440718
689.372547,-2029.113565,-248.853550,-9226.723946
689.375085,-1607.976787,363.709035,-9073.583299
689.377623,-1148.554848,2335.394858,-9073.583299
689.380161,-1282.552914,1282.552914,-8997.012976
689.382698,-689.132909,1301.695494,-8920.442653
689.385240,-880.558717,-1301.695494,-8977.870395
689.387781,-555.134843,-1071.984525,-9226.723946
689.390322,-765.703232,2239.681954,-9150.153622
689.392864,-746.560651,-1531.406464,-9016.155557
689.395405,-555.134843,-689.132909,-8824.729749
689.397946,267.996131,-1091.127106,-9226.723946
689.400488,325.423874,-995.414202,-9131.011042
689.403029,459.421939,-823.130974,-9207.581365
689.405570,210.568389,-76.570323,-9111.868461
689.408112,-727.418070,-478.564520,-8958.727814
689.410653,-440.279358,-1914.258080,-9073.583299
689.413194,-842.273555,-382.851616,-9073.583299
689.415736,344.566454,-555.134843,-9188.438784
689.418277,-363.709035,-995.414202,-9322.436850
689.420818,-976.271621,-746.560651,-8920.442653
689.423359,-19.142581,401.994197,-8863.014910
689.425901,-133.998066,-1722.832272,-9035.298138
689.428442,-842.273555,-76.570323,-9016.155557
689.430983,-421.136778,-516.849682,-9303.294269
689.433525,172.283227,-1799.402595,-9303.294269
689.436066,76.570323,-325.423874,-9092.725880
689.438607,1550.549045,-2679.961312,-9265.009107
689.441149,19.142581,-784.845813,-9131.011042
689.443690,267.996131,-937.986459,-9131.011042
689.446231,-1071.984525,-153.140646,-9016.155557
689.448773,-1129.412267,535.992262,-8824.729749
689.451314,-880.558717,-1607.976787,-8977.870395
689.453855,-133.998066,-842.273555,-9073.583299
689.456397,-287.138712,287.138712,-9245.866526
689.458938,-899.701298,1971.685822,-8824.729749
689.461479,-57.427742,555.134843,-8901.300072
689.464021,-1933.400661,421.136778,-8977.870395
689.466565,-1933.400661,-57.427742,-9169.296203
689.469109,-1799.402595,1071.984525,-8997.012976
689.471654,-2297.109696,1933.400661,-8863.014910
689.474198,-1167.697429,937.986459,-9035.298138
689.476743,-593.420005,631.705166,-9016.155557
689.479287,-574.277424,-191.425808,-9054.440718
689.481832,-784.845813,727.418070,-8939.585234
689.484376,-1454.836141,210.568389,-9016.155557
689.486921,-1722.832272,2756.531635,-8595.018779
689.489465,-1550.549045,421.136778,-9016.155557
689.492010,-19.142581,516.849682,-9207.581365
689.494554,-478.564520,-19.142581,-9054.440718
689.497098,-1205.982590,1244.267752,-8863.014910
689.499643,-2029.113565,727.418070,-8843.872330
689.502187,-2718.246474,1397.408398,-8901.300072
689.504732,-2009.970984,-19.142581,-8977.870395
689.507276,-1818.545176,803.988394,-9073.583299
689.509821,-1186.840010,2354.537438,-9073.583299
689.512365,-1225.125171,765.703232,-9131.011042
689.514910,-612.562586,1339.980656,-8958.727814
689.517454,-1091.127106,-1033.699363,-9035.298138
689.519999,-555.134843,-535.992262,-9054.440718
689.522543,-440.279358,1225.125171,-8997.012976
689.525087,-344.566454,-1301.695494,-9111.868461
689.527632,-421.136778,-210.568389,-9035.298138
689.530176,153.140646,-401.994197,-9188.438784
689.532721,0.000000,-976.271621,-9092.725880
689.535265,248.853550,-57.427742,-9188.438784
689.537810,612.562586,-1263.410333,-9131.011042
689.540354,-880.558717,-899.701298,-9111.868461
689.542899,-153.140646,-1818.545176,-9035.298138
689.545443,-995.414202,-267.996131,-9035.298138
689.547988,-19.142581,-19.142581,-9188.438784
689.550532,689.132909,-287.138712,-9169.296203
689.553076,-689.132909,-1875.972918,-9054.440718
689.555621,-1473.978722,-229.710970,-8824.729749
689.558165,-478.564520,669.990328,-8920.442653
689.560710,287.138712,-1148.554848,-9284.151688
689.563254,-114.855485,-478.564520,-9188.438784
689.565799,478.564520,-1665.404530,-9303.294269
689.568346,344.566454,-1301.695494,-9054.440718
689.570893,727.418070,-478.564520,-9150.153622
689.573440,861.416136,-1148.554848,-9111.868461
689.575987,-191.425808,-248.853550,-9035.298138
689.578534,-842.273555,-76.570323,-8901.300072
689.581081,-1205.982590,172.283227,-8920.442653
689.583628,-267.996131,-1493.121302,-9035.298138
689.586175,-210.568389,-210.568389,-9207.581365
689.588722,-478.564520,2928.814862,-9035.298138
689.591269,-1339.980656,95.712904,-8977.870395
689.593816,-1186.840010,1167.697429,-8920.442653
689.596363,-1435.693560,-555.134843,-9188.438784
689.598910,-1856.830338,1071.984525,-9073.583299
689.601457,-1607.976787,1033.699363,-8977.870395
689.604004,-2220.539373,2584.248408,-8882.157491
689.606551,-842.273555,937.986459,-9054.440718
689.609098,-478.564520,-325.423874,-9131.011042
689.611645,-861.416136,38.285162,-9245.866526
689.614192,-497.707101,1148.554848,-8882.157491
689.616740,-1359.123237,3196.810994,-8920.442653
689.619287,-1588.834206,-803.988394,-8939.585234
689.621834,-1052.841944,-287.138712,-8997.012976
689.624381,-880.558717,-172.283227,-9360.722011
689.626928,-1607.976787,2067.398726,-9054.440718
689.629475,-1818.545176,1493.121302,-8729.016845
689.632022,-2297.109696,1244.267752,-8786.444587
689.634569,-1933.400661,0.000000,-8977.870395
689.637116,-2220.539373,1167.697429,-9016.155557
689.639663,-1071.984525,1167.697429,-8997.012976
689.642210,-1493.121302,1799.402595,-8997.012976
689.644757,-306.281293,1071.984525,-9016.155557
689.647304,-1186.840010,-1722.832272,-9073.583299
689.649851,-650.847747,-229.710970,-9188.438784
689.652398,-306.281293,727.418070,-9016.155557
689.654945,-114.855485,-440.279358,-9092.725880
689.657492,-248.853550,-497.707101,-9016.155557
689.660039,-19.142581,-1512.263883,-9188.438784
689.662586,306.281293,-306.281293,-9073.583299
689.665133,76.570323,-38.285162,-9035.298138
689.667680,382.851616,-516.849682,-9150.153622
689.670230,-497.707101,-1186.840010,-9150.153622
689.672780,-306.281293,-1780.260014,-9169.296203
689.675329,-842.273555,-267.996131,-8939.585234
689.677879,-57.427742,-516.849682,-9169.296203
689.680428,689.132909,727.418070,-8977.870395
689.682977,-459.421939,-1895.115499,-9131.011042
689.685527,-1378.265818,-2067.398726,-8863.014910
689.688076,-2048.256146,57.427742,-9035.298138
689.690626,708.275490,-784.845813,-9131.011042
689.693175,95.712904,382.851616,-9207.581365
689.695725,1263.410333,-1741.974853,-9092.725880
689.698274,191.425808,-708.275490,-9035.298138
689.700823,727.418070,-1761.117434,-9111.868461
689.703373,172.283227,-535.992262,-9188.438784
689.705922,-210.568389,-631.705166,-9054.440718
689.708472,-1282.552914,401.994197,-8977.870395
689.711021,-803.988394,-880.558717,-9073.583299
689.713571,-153.140646,-1569.691626,-9054.440718
689.716120,-612.562586,38.285162,-9073.583299
689.718669,-401.994197,2258.824534,-8977.870395
689.721219,-880.558717,708.275490,-8939.585234
689.723768,-1473.978722,267.996131,-8958.727814
689.726318,-1875.972918,-574.277424,-9054.440718
689.728867,-1837.687757,1301.695494,-8997.012976
689.731417,-1646.261949,1646.261949,-8958.727814
689.733966,-1569.691626,1531.406464,-8901.300072
689.736516,-1052.841944,765.703232,-8977.870395
689.739065,-784.845813,-363.709035,-9131.011042
689.741614,-918.843878,535.992262,-9150.153622
689.744164,-421.136778,1741.974853,-8920.442653
689.746713,-2163.111630,516.849682,-8843.872330
689.749263,-1493.121302,593.420005,-9054.440718
689.751812,-478.564520,1129.412267,-9111.868461
689.754362,-1129.412267,191.425808,-9150.153622
689.756911,-1110.269686,1550.549045,-8824.729749
689.759460,-2048.256146,1607.976787,-8786.444587
689.762010,-2584.248408,1091.127106,-8977.870395
689.764559,-2316.252277,497.707101,-9035.298138
689.767109,-1512.263883,574.277424,-9054.440718
689.769658,-1225.125171,2143.969050,-9016.155557
689.772210,-689.132909,976.271621,-9111.868461
689.774761,-880.558717,555.134843,-8997.012976
689.777313,-555.134843,-1607.976787,-9035.298138
689.779865,-363.709035,1875.972918,-8977.870395
689.782416,-191.425808,-1952.543242,-9092.725880
689.784968,-440.279358,689.132909,-9016.155557
689.787520,191.425808,-1952.543242,-9226.723946
689.790071,76.570323,650.847747,-8997.012976
689.792623,114.855485,-1550.549045,-9092.725880
689.795174,-248.853550,0.000000,-8977.870395
689.797726,-38.285162,-1052.841944,-9150.153622
689.800278,-19.142581,-1493.121302,-9150.153622
689.802829,-516.849682,-382.851616,-8997.012976
689.805381,-114.855485,-76.570323,-8958.727814
689.807933,344.566454,1550.549045,-8805.587168
689.810484,478.564520,-1780.260014,-9188.438784
689.813036,-1722.832272,-191.425808,-8786.444587
689.815588,-727.418070,516.849682,-8901.300072
689.818139,210.568389,-1378.265818,-9245.866526
689.820691,-38.285162,344.566454,-9169.296203
689.823242,1588.834206,-1818.545176,-9188.438784
689.825794,229.710970,-440.279358,-9150.153622
689.828346,1263.410333,-1607.976787,-9226.723946
689.830897,-19.142581,-210.568389,-9092.725880
689.833449,-76.570323,-1091.127106,-9131.011042
689.836001,-1569.691626,344.566454,-8958.727814
689.838552,-976.271621,-57.427742,-9111.868461
689.841104,133.998066,-1512.263883,-9131.011042
689.843656,-1320.838075,1320.838075,-8977.870395
689.846207,-803.988394,1875.972918,-8997.012976
689.848759,-899.701298,306.281293,-8997.012976
689.851310,-1378.265818,497.707101,-8882.157491
689.853862,-1646.261949,-459.421939,-9016.155557
689.856414,-1761.117434,1052.841944,-8939.585234
689.858965,-1703.689691,2488.535504,-8958.727814
689.861517,-1569.691626,401.994197,-9054.440718
689.864069,-1033.699363,344.566454,-9054.440718
689.866620,-669.990328,-267.996131,-9207.581365
689.869172,-957.129040,497.707101,-9054.440718
689.871723,-1110.269686,2660.818731,-8958.727814
689.874277,57.427742,344.566454,-9150.153622
689.876831,-784.845813,-4843.072942,-9207.581365
689.879385,-1339.980656,5053.641331,-8824.729749
689.881939,-918.843878,-1607.976787,-9073.583299
689.884493,-2488.535504,4115.654872,-8843.872330
689.887046,-689.132909,-957.129040,-8843.872330
689.889600,-3177.668413,1741.974853,-8709.874264
689.892154,-1684.547110,784.845813,-9054.440718
689.894708,-2105.683888,363.709035,-9035.298138
689.897262,-1071.984525,2335.394858,-8920.442653
689.899815,-421.136778,-823.130974,-9150.153622
689.902369,-1531.406464,248.853550,-9016.155557
689.904923,210.568389,-267.996131,-9245.866526
689.907477,-1722.832272,133.998066,-9035.298138
689.910031,287.138712,-19.142581,-9188.438784
689.912584,-267.996131,-1722.832272,-9054.440718
689.915138,76.570323,440.279358,-9150.153622
689.917692,38.285162,-1627.119368,-9054.440718
689.920246,-612.562586,497.707101,-8958.727814
689.922800,401.994197,-1225.125171,-9092.725880
689.925354,-248.853550,-1205.982590,-9169.296203
689.927907,-57.427742,-1837.687757,-9245.866526
689.930461,-421.136778,-803.988394,-9188.438784
689.933015,191.425808,516.849682,-9016.155557
689.935569,535.992262,-1607.976787,-9035.298138
689.938123,-1607.976787,-248.853550,-8882.157491
689.940676,287.138712,38.285162,-9054.440718
689.943230,-401.994197,-2124.826469,-9341.579430
689.945784,-19.142581,-172.283227,-9131.011042
689.948338,708.275490,-1895.115499,-9169.296203
689.950892,746.560651,19.142581,-9035.298138
689.953445,1339.980656,-2507.678085,-9245.866526
689.955999,38.285162,-287.138712,-8958.727814
689.958553,-57.427742,-842.273555,-9150.153622
689.961107,-1684.547110,172.283227,-8977.870395
689.963661,-440.279358,-574.277424,-9092.725880
689.966214,-229.710970,-1646.261949,-9111.868461
689.968768,-1033.699363,918.843878,-9035.298138
689.971322,-918.843878,1531.406464,-8939.585234
689.973876,-1244.267752,1091.127106,-8958.727814
689.976431,-1263.410333,-95.712904,-8977.870395
689.978987,-1914.258080,57.427742,-8977.870395
689.981542,-1607.976787,1282.552914,-8958.727814
689.984097,-1741.974853,1646.261949,-8920.442653
689.986653,-1320.838075,1091.127106,-9016.155557
689.989208,-1091.127106,401.994197,-8997.012976
689.991763,-918.843878,344.566454,-9035.298138
689.994319,-1033.699363,555.134843,-9111.868461
689.996874,-1320.838075,-1071.984525,-9092.725880
689.999429,-2201.396792,2258.824534,-9035.298138
690.001985,-689.132909,-2029.113565,-9131.011042
690.004540,-1378.265818,2258.824534,-8920.442653
690.007095,-842.273555,-401.994197,-9054.440718
690.009651,-2373.680019,2143.969050,-8748.159426
690.012206,-2182.254211,1512.263883,-8939.585234
690.014761,-2239.681954,76.570323,-8997.012976
690.017317,-2258.824534,2220.539373,-9016.155557
690.019872,-1569.691626,-153.140646,-9150.153622
690.022427,-1014.556782,1933.400661,-8977.870395
690.024983,-593.420005,-1320.838075,-9054.440718
690.027538,-612.562586,574.277424,-8901.300072
690.030093,-153.140646,784.845813,-9016.155557
690.032648,-38.285162,-1473.978722,-9054.440718
690.035204,-191.425808,0.000000,-8977.870395
690.037759,325.423874,-2182.254211,-9360.722011
690.040314,0.000000,555.134843,-9150.153622
690.042870,38.285162,-1033.699363,-9016.155557
690.045425,-344.566454,114.855485,-8958.727814
690.047980,-38.285162,-1378.265818,-9245.866526
690.050536,344.566454,-1244.267752,-9169.296203
690.053091,-248.853550,-631.705166,-8997.012976
690.055646,-267.996131,-555.134843,-9265.009107
690.058202,-133.998066,-1205.982590,-8863.014910
690.060757,-995.414202,421.136778,-8997.012976
690.063312,-421.136778,-1033.699363,-9054.440718
690.065868,-727.418070,-325.423874,-9303.294269
690.068423,650.847747,-1799.402595,-9111.868461
690.070978,210.568389,-918.843878,-9073.583299
690.073534,1454.836141,-669.990328,-8997.012976
690.076089,689.132909,-1627.119368,-9150.153622
690.078646,306.281293,-95.712904,-9111.868461
690.081203,0.000000,-2067.398726,-9188.438784
690.083760,-593.420005,593.420005,-8863.014910
690.086317,-650.847747,-1550.549045,-9054.440718
690.088874,-535.992262,-650.847747,-9054.440718
690.091431,-784.845813,765.703232,-9092.725880
690.093988,-1033.699363,1971.685822,-8939.585234
690.096545,-574.277424,363.709035,-8997.012976
690.099101,-1263.410333,95.712904,-8958.727814
690.101658,-1895.115499,57.427742,-9016.155557
690.104215,-1607.976787,631.705166,-8977.870395
690.106772,-1722.832272,2048.256146,-8920.442653
690.109329,-1129.412267,937.986459,-9054.440718
690.111886,-1320.838075,593.420005,-8977.870395
690.114443,-803.988394,-708.275490,-9188.438784
690.117000,-1205.982590,650.847747,-9054.440718
690.119557,-574.277424,-153.140646,-8958.727814
690.122114,-2105.683888,1761.117434,-8882.157491
690.124671,-1512.263883,1990.828403,-9054.440718
690.127228,-497.707101,976.271621,-9054.440718
690.129785,-1818.545176,535.992262,-8882.157491
690.132341,-1550.549045,1454.836141,-8824.729749
690.134898,-2105.683888,1110.269686,-8709.874264
690.137455,-2507.678085,2220.539373,-8901.300072
690.140012,-1837.687757,937.986459,-9035.298138
690.142569,-1914.258080,1014.556782,-9035.298138
690.145126,-669.990328,842.273555,-9016.155557
690.147683,-803.988394,-516.849682,-9054.440718
690.150240,-267.996131,57.427742,-9035.298138
690.152797,-306.281293,1244.267752,-8901.300072
690.155354,0.000000,-1665.404530,-9016.155557
690.157911,153.140646,-267.996131,-9035.298138
690.160468,-95.712904,-1990.828403,-9265.009107
690.163025,38.285162,114.855485,-9016.155557
690.165582,-172.283227,-76.570323,-8977.870395
690.168138,-153.140646,-803.988394,-9054.440718
690.170695,-210.568389,-918.843878,-9131.011042
690.173252,478.564520,-1244.267752,-9265.009107
690.175809,-229.710970,-363.709035,-9092.725880
690.178366,382.851616,363.709035,-8805.587168
690.180907,421.136778,-631.705166,-9035.298138
690.183449,-1473.978722,-325.423874,-8997.012976
690.185990,-555.134843,-1339.980656,-9341.579430
690.188531,-535.992262,-1493.121302,-9245.866526
690.191072,0.000000,-1263.410333,-9188.438784
690.193614,957.129040,-1320.838075,-9035.298138
690.196155,784.845813,-574.277424,-9207.581365
690.198696,1110.269686,-1167.697429,-9207.581365
690.201237,401.994197,-248.853550,-9092.725880
690.203779,-133.998066,-631.705166,-8977.870395
690.206320,-1320.838075,-516.849682,-9054.440718
690.208861,-593.420005,-918.843878,-9054.440718
690.211402,-401.994197,-708.275490,-9092.725880
690.213944,-1033.699363,2584.248408,-8958.727814
690.216485,-1512.263883,421.136778,-9073.583299
690.219026,-1014.556782,1186.840010,-9073.583299
690.221567,-1454.836141,-172.283227,-9016.155557
690.224109,-1875.972918,689.132909,-9073.583299
690.226650,-1627.119368,1359.123237,-8901.300072
690.229191,-1473.978722,2220.539373,-8882.157491
690.231732,-1205.982590,823.130974,-9073.583299
690.234274,-1091.127106,-421.136778,-9188.438784
690.236815,-1091.127106,-574.277424,-9226.723946
690.239356,-1569.691626,-325.423874,-9073.583299
690.241897,-1531.406464,2316.252277,-8805.587168
690.244439,-746.560651,1722.832272,-9150.153622
690.246980,-421.136778,-344.566454,-9092.725880
690.249521,-1646.261949,1339.980656,-8824.729749
690.252062,-1454.836141,-421.136778,-8939.585234
690.254604,-2584.248408,2373.680019,-8729.016845
690.257145,-1914.258080,593.420005,-8863.014910
690.259686,-2603.390989,1531.406464,-8997.012976
690.262227,-1856.830338,1780.260014,-8939.585234
690.264769,-957.129040,-19.142581,-9054.440718
690.267310,-899.701298,306.281293,-8977.870395
690.269851,-210.568389,-1071.984525,-9111.868461
690.272392,-267.996131,2450.250342,-8920.442653
690.274934,-248.853550,-2507.678085,-8997.012976
690.277475,-210.568389,1091.127106,-8958.727814
690.280016,76.570323,-2871.387120,-9284.151688
690.282561,38.285162,401.994197,-9131.011042
690.285105,114.855485,-765.703232,-8901.300072
690.287650,-363.709035,344.566454,-8920.442653
690.290195,-153.140646,-1129.412267,-9169.296203
690.292739,306.281293,-1339.980656,-9245.866526
690.295284,-38.285162,-880.558717,-9073.583299
690.297829,-114.855485,-133.998066,-9016.155557
690.300373,-19.142581,2105.683888,-8843.872330
690.302918,-593.420005,-1225.125171,-9092.725880
690.305463,-995.414202,-287.138712,-8977.870395
690.308007,363.709035,-267.996131,-9169.296203
690.310552,95.712904,-784.845813,-9188.438784
690.313097,1167.697429,-191.425808,-9073.583299
690.315641,937.986459,-1684.547110,-9054.440718
690.318186,593.420005,153.140646,-9092.725880
690.320730,669.990328,-2679.961312,-9265.009107
690.323275,-765.703232,976.271621,-8901.300072
690.325820,-382.851616,-1435.693560,-9073.583299
690.328364,-1071.984525,-229.710970,-9111.868461
690.330909,-382.851616,-880.558717,-9150.153622
690.333454,-1167.697429,2431.107762,-8882.157491
690.335998,-1071.984525,497.707101,-8997.012976
690.338543,-1454.836141,823.130974,-9054.440718
690.341088,-2029.113565,306.281293,-9016.155557
690.343632,-1493.121302,191.425808,-9016.155557
690.346177,-1780.260014,1684.547110,-8843.872330
690.348722,-1416.550979,1531.406464,-9073.583299
690.351266,-1454.836141,861.416136,-8939.585234
690.353811,-1186.840010,-746.560651,-9226.723946
690.356356,-689.132909,669.990328,-8824.729749
690.358900,-1167.697429,2584.248408,-8805.587168
690.361445,-287.138712,612.562586,-8958.727814
690.363989,-937.986459,1971.685822,-8977.870395
690.366534,-478.564520,-516.849682,-9169.296203
690.369079,-1550.549045,287.138712,-8939.585234
690.371623,-1933.400661,689.132909,-8901.300072
690.374168,-2718.246474,1244.267752,-9016.155557
690.376713,-2220.539373,1435.693560,-8939.585234
690.379257,-2029.113565,1091.127106,-8920.442653
690.381802,-1914.258080,1703.689691,-8997.012976
690.384350,-727.418070,-38.285162,-9150.153622
690.386897,-842.273555,-363.709035,-9035.298138
690.389445,-19.142581,95.712904,-9188.438784
690.391993,-784.845813,899.701298,-8997.012976
690.394541,38.285162,-1052.841944,-8920.442653
690.397088,114.855485,-1856.830338,-9131.011042
690.399636,114.855485,-440.279358,-9284.151688
690.402184,0.000000,-746.560651,-9188.438784
690.404732,-363.709035,593.420005,-8843.872330
690.407279,-287.138712,-1397.408398,-9150.153622
690.409827,-363.709035,-612.562586,-9073.583299
690.412375,669.990328,-2105.683888,-9245.866526
690.414923,38.285162,0.000000,-9016.155557
690.417470,-708.275490,210.568389,-8882.157491
690.420018,-440.279358,689.132909,-8824.729749
690.422566,-344.566454,-1799.402595,-9150.153622
690.425114,-612.562586,-76.570323,-8977.870395
690.427661,-19.142581,-1933.400661,-9399.007173
690.430209,574.277424,-650.847747,-9035.298138
690.432757,1263.410333,-689.132909,-9092.725880
690.435305,1129.412267,-1225.125171,-9111.868461
690.437852,325.423874,-937.986459,-9150.153622
690.440400,-38.285162,-650.847747,-9150.153622
690.442948,-1454.836141,-57.427742,-9016.155557
690.445496,-287.138712,-1225.125171,-9111.868461
690.448043,-440.279358,-306.281293,-9016.155557
690.450591,-995.414202,1818.545176,-8997.012976
690.453139,-1627.119368,1473.978722,-8939.585234
690.455687,-1627.119368,1091.127106,-9111.868461
690.458234,-1607.976787,-248.853550,-9169.296203
690.460782,-1703.689691,421.136778,-8901.300072
690.463330,-1569.691626,1339.980656,-8863.014910
690.465878,-1722.832272,2220.539373,-8920.442653
690.468425,-899.701298,1052.841944,-9016.155557
690.470973,-976.271621,306.281293,-9111.868461
690.473521,-937.986459,-1301.695494,-9169.296203
690.476069,-1761.117434,-1167.697429,-8977.870395
690.478616,-1014.556782,4823.930362,-8863.014910
690.481164,-478.564520,-4364.508422,-9303.294269
690.483712,-1473.978722,4555.934230,-8767.302006
690.486262,-631.705166,-2009.970984,-9188.438784
690.488813,-2756.531635,2335.394858,-8920.442653
690.491364,-1339.980656,574.277424,-9016.155557
690.493914,-2258.824534,-57.427742,-8786.444587
690.496465,-2565.105827,3120.240670,-8939.585234
690.499015,-1684.547110,-727.418070,-9207.581365
690.501566,-1378.265818,1569.691626,-9035.298138
690.504116,-421.136778,-2794.816797,-9265.009107
690.506667,-210.568389,2392.822600,-9054.440718
690.509218,-995.414202,-1550.549045,-9131.011042
690.511768,-401.994197,957.129040,-8977.870395
690.514319,-459.421939,-2775.674216,-9245.866526
690.516869,421.136778,19.142581,-9169.296203
690.519420,95.712904,-1071.984525,-9016.155557
690.521970,-363.709035,133.998066,-8958.727814
690.524521,-401.994197,-689.132909,-9092.725880
690.527071,-478.564520,-1550.549045,-9111.868461
690.529622,669.990328,-976.271621,-9245.866526
690.532173,899.701298,172.283227,-9016.155557
690.534723,267.996131,-516.849682,-9035.298138
690.537274,-1588.834206,-325.423874,-8805.587168
690.539824,-669.990328,-918.843878,-9226.723946
690.542375,-229.710970,-1895.115499,-9284.151688
690.544925,325.423874,-1263.410333,-9379.864592
690.547476,880.558717,-1244.267752,-9111.868461
690.550027,1052.841944,-689.132909,-9150.153622
690.552577,1033.699363,-1148.554848,-9111.868461
690.555128,-210.568389,-574.277424,-8997.012976
690.557678,-306.281293,-574.277424,-9111.868461
690.560229,-918.843878,-823.130974,-9111.868461
690.562779,-382.851616,-1148.554848,-9111.868461
690.565330,-631.705166,325.423874,-9035.298138
690.567884,-957.129040,2660.818731,-8824.729749
690.570437,-612.562586,-689.132909,-9035.298138
690.572990,-1627.119368,1014.556782,-9111.868461
690.575542,-1512.263883,-880.558717,-9226.723946
690.578095,-1627.119368,1473.978722,-8863.014910
690.580648,-1416.550979,1071.984525,-8863.014910
690.583201,-1588.834206,2086.541307,-8977.870395
690.585754,-1071.984525,-19.142581,-9016.155557
690.588307,-1186.840010,95.712904,-8958.727814
690.590860,-1895.115499,-669.990328,-9169.296203
690.593413,-1263.410333,2009.970984,-8863.014910
690.595966,-306.281293,2699.103893,-8939.585234
690.598519,-172.283227,210.568389,-9016.155557
690.601071,-1225.125171,1301.695494,-8920.442653
690.603624,-1875.972918,-612.562586,-8843.872330
690.606177,-2813.959378,1933.400661,-8786.444587
690.608730,-2392.822600,1186.840010,-8958.727814
690.611283,-2603.390989,2009.970984,-8824.729749
690.613836,-1818.545176,1186.840010,-9035.298138
690.616389,-957.129040,210.568389,-9092.725880
690.618942,-516.849682,-593.420005,-9073.583299
690.621495,95.712904,-555.134843,-9092.725880
690.624048,-823.130974,1473.978722,-8939.585234
690.626601,76.570323,-1263.410333,-8958.727814
690.629153,-191.425808,-1684.547110,-9131.011042
690.631706,325.423874,-1263.410333,-9265.009107
690.634259,76.570323,-248.853550,-9169.296203
690.636812,-267.996131,-95.712904,-8958.727814
690.639365,-325.423874,-497.707101,-9131.011042
690.641918,-497.707101,-1033.699363,-9169.296203
690.644471,153.140646,-1914.258080,-9265.009107
690.647024,76.570323,-344.566454,-9054.440718
690.649577,765.703232,2009.970984,-8786.444587
690.652130,-76.570323,-3445.664544,-9150.153622
690.654682,-2890.529701,612.562586,-8748.159426
690.657235,957.129040,-1225.125171,-9284.151688
690.659788,229.710970,-1148.554848,-9226.723946
690.662341,1627.119368,-267.996131,-9226.723946
690.664894,1014.556782,-1875.972918,-9111.868461
690.667447,727.418070,1110.269686,-9035.298138
690.669985,803.988394,-2718.246474,-9265.009107
690.672523,-1091.127106,842.273555,-8843.872330
690.675062,133.998066,-2392.822600,-9188.438784
690.677600,-1244.267752,76.570323,-8997.012976
690.680138,-535.992262,-57.427742,-9111.868461
690.682676,-1359.123237,2679.961312,-8786.444587
690.685214,-650.847747,363.709035,-8920.442653
690.687753,-1225.125171,-574.277424,-9111.868461
690.690291,-2143.969050,478.564520,-9226.723946
690.692829,-937.986459,650.847747,-8920.442653
690.695367,-1895.115499,2163.111630,-8786.444587
690.697906,-1167.697429,1320.838075,-8997.012976
690.700444,-1301.695494,555.134843,-8920.442653
690.702982,-1186.840010,-133.998066,-9131.011042
690.705520,-593.420005,19.142581,-8997.012976
690.708058,-957.129040,-229.710970,-8958.727814
690.710597,-746.560651,2775.674216,-8958.727814
690.713135,-440.279358,-1359.123237,-9111.868461
690.715673,-2067.398726,2258.824534,-8997.012976
690.718211,-1512.263883,-1282.552914,-9035.298138
690.720749,-3196.810994,2067.398726,-8824.729749
690.723288,-1703.689691,784.845813,-9035.298138
690.725826,-2718.246474,38.285162,-8843.872330
690.728364,-1761.117434,2794.816797,-8977.870395
690.730902,-1071.984525,-1454.836141,-9303.294269
690.733440,-612.562586,650.847747,-9131.011042
690.735979,669.990328,-95.712904,-9188.438784
690.738517,-1129.412267,-19.142581,-8977.870395
690.741055,95.712904,-363.709035,-9016.155557
690.743593,-382.851616,-2105.683888,-9111.868461
690.746132,-19.142581,-267.996131,-9207.581365
690.748670,19.142581,-1339.980656,-9111.868461
690.751208,-401.994197,803.988394,-8977.870395
690.753746,-306.281293,-1799.402595,-9131.011042
690.756284,-440.279358,-229.710970,-9150.153622
690.758823,497.707101,-1722.832272,-9265.009107
690.761361,325.423874,765.703232,-8958.727814
690.763899,555.134843,-746.560651,-8977.870395
690.766437,-1339.980656,-2488.535504,-8997.012976
690.768975,-1320.838075,497.707101,-9016.155557
690.771518,133.998066,-1933.400661,-9456.434915
690.774060,784.845813,133.998066,-9265.009107
690.776603,1875.972918,-2354.537438,-9131.011042
690.779145,459.421939,153.140646,-8939.585234
690.781688,1110.269686,-1684.547110,-9188.438784
690.784230,-344.566454,-669.990328,-9054.440718
690.786772,-861.416136,-382.851616,-9016.155557
690.789315,-440.279358,-1473.978722,-9092.725880
690.791857,-382.851616,267.996131,-8977.870395
690.794400,-918.843878,2143.969050,-8958.727814
690.796942,-1646.261949,976.271621,-8882.157491
690.799485,-1397.408398,899.701298,-9016.155557
690.802027,-1473.978722,-172.283227,-9226.723946
690.804569,-1607.976787,784.845813,-9016.155557
690.807112,-1359.123237,1473.978722,-8824.729749
690.809654,-1703.689691,2086.541307,-8920.442653
690.812197,-1014.556782,995.414202,-8920.442653
690.814739,-1301.695494,325.423874,-8997.012976
690.817281,-1052.841944,1205.982590,-9035.298138
690.819824,363.709035,-861.416136,-9054.440718
690.822366,-746.560651,-976.271621,-8652.446522
690.824909,-784.845813,4843.072942,-9035.298138
690.827451,-1339.980656,-1780.260014,-8939.585234
690.829994,-1627.119368,3790.230998,-8863.014910
690.832536,-1799.402595,-1378.265818,-9150.153622
690.835078,-3751.945837,3235.096155,-8920.442653
690.837621,-1952.543242,823.130974,-8901.300072
690.840163,-2756.531635,2622.533570,-9073.583299
690.842706,-516.849682,440.279358,-9131.011042
690.845248,-535.992262,-1359.123237,-9150.153622
690.847791,229.710970,1761.117434,-9073.583299
690.850333,-574.277424,-2124.826469,-9016.155557
690.852875,-478.564520,1301.695494,-9035.298138
690.855418,229.710970,-3349.951640,-9016.155557
690.857960,153.140646,-19.142581,-9111.868461
690.860503,-210.568389,-1512.263883,-9188.438784
690.863045,-612.562586,574.277424,-8977.870395
690.865587,-497.707101,-1646.261949,-9035.298138
690.868130,-401.994197,-803.988394,-9131.011042
690.870672,382.851616,-1933.400661,-9207.581365
690.873219,-555.134843,-459.421939,-9188.438784
690.875765,784.845813,287.138712,-8958.727814
690.878311,-1110.269686,153.140646,-8882.157491
690.880858,-842.273555,325.423874,-9073.583299
690.883404,516.849682,-2775.674216,-9303.294269
690.885950,306.281293,535.992262,-9131.011042
690.888496,2124.826469,-1665.404530,-9245.866526
690.891043,497.707101,76.570323,-8997.012976
690.893589,1014.556782,-1301.695494,-9131.011042
690.896135,-746.560651,-650.847747,-9016.155557
690.898682,-440.279358,-267.996131,-9054.440718
690.901228,-516.849682,-1914.258080,-9131.011042
690.903774,-899.701298,1646.261949,-8920.442653
690.906321,-899.701298,1473.978722,-8882.157491
690.908867,-1282.552914,1320.838075,-8824.729749
690.911413,-1282.552914,210.568389,-9131.011042
690.913959,-1914.258080,57.427742,-9169.296203
690.916506,-1052.841944,784.845813,-9169.296203
690.919052,-1493.121302,1014.556782,-8863.014910
690.921598,-1531.406464,2411.965181,-8920.442653
690.924145,-1205.982590,-57.427742,-8939.585234
690.926691,-1225.125171,-38.285162,-9111.868461
690.929237,-1110.269686,-19.142581,-9092.725880
690.931784,-1588.834206,1014.556782,-8977.870395
690.934330,-669.990328,1837.687757,-8977.870395
690.936876,-1052.841944,1378.265818,-8805.587168
690.939422,-1244.267752,803.988394,-8958.727814
690.941969,-1588.834206,1110.269686,-8767.302006
690.944515,-2469.392923,976.271621,-8920.442653
690.947061,-3101.098090,2545.963246,-8901.300072
690.949608,-2354.537438,535.992262,-8882.157491
690.952154,-1780.260014,1493.121302,-9054.440718
690.954700,-669.990328,-1167.697429,-9207.581365
690.957247,363.709035,-267.996131,-9169.296203
690.959793,-631.705166,899.701298,-9016.155557
690.962339,191.425808,-1378.265818,-9092.725880
690.964885,153.140646,-937.986459,-8863.014910
690.967432,382.851616,-1014.556782,-9111.868461
690.969978,-497.707101,-76.570323,-9111.868461
690.972524,-133.998066,-1263.410333,-9092.725880
690.975057,-421.136778,-497.707101,-8997.012976
690.977590,-229.710970,-746.560651,-9054.440718
690.980123,76.570323,-1397.408398,-9092.725880
690.982655,-363.709035,-1914.258080,-9245.866526
690.985188,-344.566454,765.703232,-8863.014910
690.987721,-497.707101,-995.414202,-9092.725880
690.990254,-1665.404530,-497.707101,-8824.729749
690.992786,440.279358,-708.275490,-9303.294269
690.995319,1071.984525,-2565.105827,-9207.581365
690.997852,1339.980656,325.423874,-9207.581365
691.000385,1129.412267,-1875.972918,-9226.723946
691.002917,401.994197,-593.420005,-9016.155557
691.005450,401.994197,-1588.834206,-9207.581365
691.007983,-995.414202,-133.998066,-9035.298138
691.010516,19.142581,-1550.549045,-9092.725880
691.013048,-842.273555,-76.570323,-9092.725880
691.015581,-1148.554848,2947.957443,-8824.729749
691.018114,-1301.695494,306.281293,-8920.442653
691.020647,-1761.117434,880.558717,-8977.870395
691.023179,-1359.123237,-516.849682,-9265.009107
691.025712,-1473.978722,1205.982590,-9054.440718
691.028245,-1301.695494,1397.408398,-8901.300072
691.030778,-1512.263883,2163.111630,-8824.729749
691.033310,-1167.697429,440.279358,-9131.011042
691.035843,-823.130974,-344.566454,-8939.585234
691.038376,-1703.689691,1703.689691,-9054.440718
691.040909,-593.420005,-459.421939,-9131.011042
691.043441,-1071.984525,1512.263883,-9073.583299
691.045974,-459.421939,210.568389,-8863.014910
691.048507,-1818.545176,1741.974853,-8977.870395
691.051040,-1722.832272,-306.281293,-8863.014910
691.053572,-2679.961312,861.416136,-9073.583299
691.056105,-2947.957443,1914.258080,-8824.729749
691.058638,-2469.392923,1569.691626,-8805.587168
691.061170,-1416.550979,727.418070,-8997.012976
691.063703,-918.843878,-248.853550,-9265.009107
691.066236,57.427742,-1148.554848,-9265.009107
691.068769,-19.142581,1875.972918,-8977.870395
691.071301,440.279358,-995.414202,-8977.870395
691.073834,-19.142581,-1359.123237,-8958.727814
691.076372,440.279358,-1205.982590,-9169.296203
691.078910,-574.277424,-574.277424,-9073.583299
691.081448,-401.994197,-363.709035,-9169.296203
691.083987,-191.425808,38.285162,-9035.298138
691.086525,-287.138712,-1110.269686,-9092.725880
691.089063,-191.425808,-2411.965181,-9207.581365
691.091601,38.285162,-401.994197,-9073.583299
691.094139,1205.982590,-784.845813,-8939.585234
691.096677,-1627.119368,535.992262,-8671.589102
691.099215,-1205.982590,-478.564520,-9226.723946
691.101753,535.992262,-2316.252277,-9169.296203
691.104291,669.990328,-880.558717,-9379.864592
691.106829,1493.121302,-1990.828403,-9265.009107
691.109367,593.420005,172.283227,-9073.583299
691.111905,880.558717,-172.283227,-9035.298138
691.114444,-382.851616,-1263.410333,-9092.725880
691.116982,-19.142581,-899.701298,-9111.868461
691.119520,-459.421939,-1990.828403,-9226.723946
691.122058,-842.273555,1205.982590,-8997.012976
691.124596,-1033.699363,2699.103893,-8786.444587
691.127134,-1588.834206,899.701298,-8824.729749
691.129672,-1359.123237,76.570323,-9150.153622
691.132210,-1627.119368,-459.421939,-9207.581365
691.134748,-918.843878,1320.838075,-8997.012976
691.137286,-1244.267752,1148.554848,-8786.444587
691.139824,-1301.695494,3024.527766,-8824.729749
691.142362,-1320.838075,-440.279358,-9054.440718
691.144901,-1301.695494,229.710970,-9150.153622
691.147439,-363.709035,-1320.838075,-9265.009107
691.149977,-861.416136,976.271621,-8977.870395
691.152515,-650.847747,1512.263883,-8939.585234
691.155053,-1684.547110,765.703232,-8958.727814
691.157591,-1684.547110,229.710970,-8882.157491
691.160129,-2335.394858,172.283227,-8863.014910
691.162667,-2373.680019,1684.547110,-8901.300072
691.165205,-2622.533570,1856.830338,-8920.442653
691.167743,-2450.250342,2603.390989,-8767.302006
691.170281,-1588.834206,-861.416136,-9188.438784
691.172819,-555.134843,-650.847747,-9188.438784
691.175358,440.279358,918.843878,-9265.009107
691.177901,-191.425808,-1359.123237,-9035.298138
691.180444,-76.570323,1301.695494,-9016.155557
691.182987,-191.425808,-3139.383251,-9073.583299
691.185530,497.707101,-229.710970,-9016.155557
691.188073,0.000000,-2086.541307,-9169.296203
691.190616,-516.849682,1301.695494,-8977.870395
691.193159,-363.709035,-1588.834206,-9092.725880
691.195702,-574.277424,-669.990328,-9092.725880
691.198245,363.709035,-1263.410333,-9111.868461
691.200788,861.416136,440.279358,-9322.436850
691.203331,-497.707101,-4249.652938,-9150.153622
691.205874,-2641.676150,-1550.549045,-8920.442653
691.208417,535.992262,-133.998066,-9169.296203
691.210960,-76.570323,-1856.830338,-9418.149754
691.213503,1607.976787,-765.703232,-9245.866526
691.216046,1512.263883,-2373.680019,-9169.296203
691.218589,708.275490,555.134843,-9016.155557
691.221132,287.138712,-1818.545176,-9169.296203
691.223675,-1244.267752,-153.140646,-8939.585234
691.226218,172.283227,-2124.826469,-9265.009107
691.228761,-899.701298,210.568389,-8901.300072
691.231304,-593.420005,3503.092286,-8786.444587
691.233847,-2201.396792,267.996131,-8863.014910
691.236390,-1225.125171,1493.121302,-8882.157491
691.238933,-1646.261949,-784.845813,-9131.011042
691.241476,-1550.549045,669.990328,-9245.866526
691.244019,-1014.556782,937.986459,-8997.012976
691.246562,-1320.838075,2986.242605,-8824.729749
691.249105,-918.843878,746.560651,-9054.440718
691.251648,-1627.119368,-497.707101,-8939.585234
691.254191,-1301.695494,1052.841944,-9131.011042
691.256734,-133.998066,-401.994197,-9092.725880
691.259277,-1148.554848,2641.676150,-8920.442653
691.261820,-478.564520,842.273555,-8939.585234
691.264363,-1856.830338,497.707101,-8920.442653
691.266906,-2124.826469,1588.834206,-8939.585234
691.269449,-2699.103893,478.564520,-9073.583299
691.271992,-2986.242605,2545.963246,-8843.872330
691.274535,-2182.254211,880.558717,-8920.442653
691.277078,-1741.974853,1761.117434,-8939.585234
691.279608,-440.279358,-1320.838075,-9226.723946
691.282139,382.851616,1933.400661,-9111.868461
691.284669,76.570323,-3177.668413,-9111.868461
691.287199,229.710970,1512.263883,-8977.870395
691.289730,-267.996131,-2928.814862,-9131.011042
691.292260,-267.996131,-363.709035,-9035.298138
691.294790,-287.138712,-1282.552914,-9111.868461
691.297321,-440.279358,382.851616,-9035.298138
691.299851,-459.421939,-1263.410333,-9150.153622
691.302381,-325.423874,-1244.267752,-9092.725880
691.304912,-19.142581,-1225.125171,-9169.296203
691.307442,0.000000,-1167.697429,-9245.866526
691.309972,-842.273555,880.558717,-8997.012976
691.312502,-133.998066,-880.558717,-8882.157491
691.315033,-153.140646,-497.707101,-9188.438784
691.317563,497.707101,-1569.691626,-9245.866526
691.320093,1186.840010,-1741.974853,-9341.579430
691.322624,1014.556782,-727.418070,-9073.583299
691.325154,861.416136,-976.271621,-9150.153622
691.327684,76.570323,-440.279358,-8997.012976
691.330215,-19.142581,-1129.412267,-9169.296203
691.332745,-401.994197,-957.129040,-9073.583299
691.335275,-669.990328,0.000000,-8997.012976
691.337806,-1435.693560,2775.674216,-8748.159426
691.340336,-1531.406464,842.273555,-8958.727814
691.342866,-1665.404530,516.849682,-9016.155557
691.345397,-1741.974853,210.568389,-9303.294269
691.347927,-593.420005,765.703232,-8997.012976
691.350457,-1052.841944,1205.982590,-8843.872330
691.352988,-1091.127106,1971.685822,-8863.014910
691.355518,-1359.123237,459.421939,-9016.155557
691.358048,-976.271621,976.271621,-8863.014910
691.360579,-612.562586,1282.552914,-9092.725880
691.363109,-478.564520,918.843878,-8997.012976
691.365639,-459.421939,2201.396792,-9073.583299
691.368170,-1129.412267,-210.568389,-8939.585234
691.370700,-2335.394858,2488.535504,-8920.442653
691.373230,-2143.969050,-401.994197,-8997.012976
691.375760,-3043.670347,3062.812928,-9111.868461
691.378291,-2392.822600,421.136778,-8958.727814
691.380827,-2277.967115,1703.689691,-8824.729749
691.383364,-650.847747,-478.564520,-9054.440718
691.385900,-76.570323,-497.707101,-9303.294269
691.388436,-267.996131,497.707101,-9016.155557
691.390973,861.416136,-1493.121302,-9226.723946
691.393509,-153.140646,-899.701298,-9016.155557
691.396046,344.566454,-1569.691626,-9188.438784
691.398582,-114.855485,-191.425808,-8977.870395
691.401119,-421.136778,-325.423874,-9073.583299
691.403655,-555.134843,-708.275490,-9188.438784
691.406191,-478.564520,-1014.556782,-9054.440718
691.408728,-382.851616,-1703.689691,-9150.153622
691.411264,114.855485,-2201.396792,-9169.296203
691.413801,153.140646,1205.982590,-8997.012976
691.416337,-689.132909,555.134843,-8729.016845
691.418874,-421.136778,-497.707101,-8958.727814
691.421410,363.709035,-2105.683888,-9360.722011
691.423946,1052.841944,-1091.127106,-9303.294269
691.426483,1550.549045,-1033.699363,-9054.440718
691.429019,976.271621,153.140646,-9054.440718
691.431556,516.849682,-765.703232,-8939.585234
691.434092,-708.275490,-1339.980656,-9016.155557
691.436629,-267.996131,-1895.115499,-9245.866526
691.439165,-765.703232,0.000000,-9016.155557
691.441701,-976.271621,3790.230998,-8805.587168
691.444238,-1933.400661,478.564520,-8690.731683
691.446774,-1550.549045,1627.119368,-8863.014910
691.449311,-1416.550979,-689.132909,-9150.153622
691.451847,-1091.127106,574.277424,-9226.723946
691.454383,-1129.412267,1091.127106,-9016.155557
691.456920,-1129.412267,2890.529701,-8748.159426
691.459456,-1052.841944,172.283227,-8786.444587
691.461993,-2182.254211,-574.277424,-9169.296203
691.464529,-1588.834206,555.134843,-9016.155557
691.467066,382.851616,593.420005,-9188.438784
691.469602,-1071.984525,382.851616,-9016.155557
691.472138,-1435.693560,1933.400661,-8863.014910
691.474675,-1933.400661,210.568389,-8748.159426
691.477211,-2488.535504,1684.547110,-8920.442653
691.479748,-2354.537438,861.416136,-9111.868461
691.482290,-3062.812928,2029.113565,-8920.442653
691.484832,-1684.547110,823.130974,-8843.872330
691.487374,-1684.547110,-19.142581,-8843.872330
691.489916,-19.142581,-535.992262,-9245.866526
691.492457,172.283227,1148.554848,-9073.583299
691.494999,650.847747,-516.849682,-9207.581365
691.497541,172.283227,-2392.822600,-9111.868461
691.500083,76.570323,-382.851616,-9054.440718
691.502625,-229.710970,-669.990328,-8997.012976
691.505167,-880.558717,-440.279358,-9131.011042
691.507709,-401.994197,-114.855485,-9265.009107
691.510251,-497.707101,-1339.980656,-9150.153622
691.512793,-401.994197,-1990.828403,-9054.440718
691.515335,-555.134843,-1148.554848,-9092.725880
691.517877,784.845813,1052.841944,-8939.585234
691.520419,57.427742,-38.285162,-8920.442653
691.522961,-1588.834206,-1225.125171,-9188.438784
691.525503,172.283227,-2488.535504,-9341.579430
691.528045,784.845813,-1473.978722,-9341.579430
691.530587,1588.834206,-976.271621,-9303.294269
691.533129,1416.550979,-899.701298,-8977.870395
691.535671,-76.570323,248.853550,-8977.870395
691.538213,0.000000,-2431.107762,-9188.438784
691.540755,-593.420005,-937.986459,-9111.868461
691.543297,-401.994197,-516.849682,-9054.440718
691.545839,-1493.121302,3675.375514,-8767.302006
691.548381,-1741.974853,937.986459,-8843.872330
691.550923,-2182.254211,382.851616,-9016.155557
691.553465,-1799.402595,-306.281293,-9226.723946
691.556007,-421.136778,287.138712,-9092.725880
691.558549,-1110.269686,1665.404530,-8863.014910
691.561091,-803.988394,2143.969050,-8997.012976
691.563632,-1205.982590,1339.980656,-8786.444587
691.566174,-1301.695494,497.707101,-8786.444587
691.568716,-593.420005,650.847747,-9092.725880
691.571258,-210.568389,-191.425808,-9207.581365
691.573800,-765.703232,3292.523898,-8901.300072
691.576342,-1301.695494,535.992262,-8882.157491
691.578884,-2163.111630,2545.963246,-8633.303941
691.581426,-1837.687757,172.283227,-8843.872330
691.583974,-3043.670347,2163.111630,-9016.155557
691.586520,-2124.826469,1799.402595,-9054.440718
691.589067,-1990.828403,172.283227,-8901.300072
691.591614,-1033.699363,-153.140646,-8977.870395
691.594160,267.996131,593.420005,-9169.296203
691.596707,-248.853550,-1473.978722,-9092.725880
691.599253,555.134843,38.285162,-9169.296203
691.601800,-133.998066,-2986.242605,-9207.581365
691.604346,267.996131,-746.560651,-9054.440718
691.606893,-421.136778,-1033.699363,-8920.442653
691.609440,-535.992262,899.701298,-8977.870395
691.611986,-497.707101,-1091.127106,-9226.723946
691.614533,-440.279358,-689.132909,-9016.155557
691.617079,-650.847747,-2029.113565,-9131.011042
691.619626,937.986459,-57.427742,-8958.727814
691.622172,-746.560651,669.990328,-8939.585234
691.624719,-401.994197,0.000000,-8805.587168
691.627266,-612.562586,-2392.822600,-9341.579430
691.629812,535.992262,-1569.691626,-9322.436850
691.632359,1148.554848,-1933.400661,-9360.722011
691.634905,1052.841944,-344.566454,-9092.725880
691.637452,899.701298,-382.851616,-9111.868461
691.639998,-459.421939,-153.140646,-9035.298138
691.642545,325.423874,-2239.681954,-9188.438784
691.645092,-248.853550,-1129.412267,-9226.723946
691.647638,-1052.841944,3579.662610,-8824.729749
691.650185,-2029.113565,1148.554848,-8709.874264
691.652731,-1837.687757,2469.392923,-8920.442653
691.655278,-1741.974853,-421.136778,-9016.155557
691.657824,-1359.123237,-325.423874,-9150.153622
691.660371,-689.132909,957.129040,-9073.583299
691.662918,-746.560651,2220.539373,-8958.727814
691.665464,-995.414202,1148.554848,-8977.870395
691.668011,-1531.406464,-823.130974,-9035.298138
691.670557,-2143.969050,0.000000,-9111.868461
691.673104,-267.996131,306.281293,-9284.151688
691.675650,-516.849682,19.142581,-9016.155557
691.678197,-1435.693560,3426.521963,-8882.157491
691.680744,-2029.113565,229.710970,-8786.444587
691.683290,-2316.252277,2086.541307,-8767.302006
691.685841,-2277.967115,-76.570323,-9092.725880
691.688392,-2928.814862,2029.113565,-9111.868461
691.690943,-1282.552914,995.414202,-8958.727814
691.693493,-1684.547110,-363.709035,-8920.442653
691.696044,172.283227,555.134843,-9226.723946
691.698595,-631.705166,-1473.978722,-9131.011042
691.701146,861.416136,-440.279358,-9303.294269
691.703696,210.568389,-2986.242605,-9226.723946
691.706247,-555.134843,-153.140646,-9054.440718
691.708798,-114.855485,-1148.554848,-8786.444587
691.711349,-689.132909,689.132909,-8977.870395
691.713900,-650.847747,-1186.840010,-9245.866526
691.716450,-765.703232,-1684.547110,-9284.151688
691.719001,172.283227,-995.414202,-9188.438784
691.721552,-363.709035,-2009.970984,-9169.296203
691.724103,-650.847747,784.845813,-8882.157491
691.726654,-1225.125171,-38.285162,-8997.012976
691.729204,287.138712,-1378.265818,-9188.438784
691.731755,593.420005,-133.998066,-9245.866526
691.734306,1359.123237,-2411.965181,-9303.294269
691.736857,593.420005,-325.423874,-8977.870395
691.739407,957.129040,-765.703232,-9054.440718
691.741958,-421.136778,-689.132909,-9111.868461
691.744509,-306.281293,-995.414202,-9207.581365
691.747060,-248.853550,-1301.695494,-9073.583299
691.749611,-1569.691626,4326.223261,-8709.874264
691.752161,-2411.965181,-306.281293,-8824.729749
691.754712,-1627.119368,2947.957443,-8939.585234
691.757263,-1339.980656,-823.130974,-8977.870395
691.759814,-1627.119368,1014.556782,-9169.296203
691.762365,-535.992262,401.994197,-9073.583299
691.764915,-842.273555,1971.685822,-8901.300072
691.767453,-861.416136,2009.970984,-8786.444587
691.769990,-1378.265818,153.140646,-8882.157491
691.772528,-880.558717,1320.838075,-8977.870395
691.775065,-784.845813,880.558717,-8977.870395
691.777603,-267.996131,1971.685822,-9111.868461
691.780140,-976.271621,440.279358,-8958.727814
691.782678,-1971.685822,2431.107762,-8652.446522
691.785215,-1933.400661,593.420005,-8729.016845
691.787753,-3407.379382,1493.121302,-9073.583299
691.790290,-2105.683888,1684.547110,-9035.298138
691.792828,-2048.256146,1301.695494,-8882.157491
691.795365,-765.703232,-210.568389,-9035.298138
691.797902,172.283227,1569.691626,-9111.868461
691.800440,-287.138712,-2258.824534,-9131.011042
691.802977,803.988394,1014.556782,-9131.011042
691.805515,210.568389,-2679.961312,-9303.294269
691.808052,-382.851616,-1282.552914,-9150.153622
691.810590,-478.564520,-669.990328,-8939.585234
691.813127,-516.849682,669.990328,-9092.725880
691.815665,-746.560651,-650.847747,-9265.009107
691.818202,-708.275490,-2641.676150,-9303.294269
691.820740,19.142581,-2354.537438,-9265.009107
691.823277,-1033.699363,-2641.676150,-9016.155557
691.825815,-1282.552914,3598.805190,-8805.587168
691.828352,172.283227,-2928.814862,-9207.581365
691.830890,-210.568389,57.427742,-8958.727814
691.833427,918.843878,-3177.668413,-9475.577496
691.835964,421.136778,574.277424,-9092.725880
691.838502,1837.687757,-1378.265818,-9131.011042
691.841039,287.138712,-1052.841944,-9054.440718
691.843577,401.994197,-1684.547110,-9073.583299
691.846114,-229.710970,-2067.398726,-9188.438784
691.848652,-1454.836141,1205.982590,-9092.725880
691.851189,-1531.406464,2641.676150,-8824.729749
691.853727,-1837.687757,1186.840010,-8805.587168
691.856264,-2124.826469,1167.697429,-8939.585234
691.858802,-1646.261949,38.285162,-9226.723946
691.861339,-727.418070,267.996131,-9035.298138
691.863877,-574.277424,1799.402595,-8958.727814
691.866414,-421.136778,1435.693560,-9035.298138
691.868957,-1454.836141,440.279358,-8958.727814
691.871500,-1607.976787,937.986459,-9035.298138
691.874043,-1148.554848,-784.845813,-9169.296203
691.876585,-133.998066,1703.689691,-9073.583299
691.879128,-401.994197,2411.965181,-8863.014910
691.881671,-1837.687757,1167.697429,-8824.729749
691.884214,-2411.965181,2067.398726,-8786.444587
691.886757,-2890.529701,133.998066,-9092.725880
691.889299,-2718.246474,2182.254211,-9073.583299
691.891842,-1799.402595,267.996131,-9073.583299
691.894385,-1378.265818,1071.984525,-8863.014910
691.896928,133.998066,746.560651,-9131.011042
691.899471,-574.277424,-842.273555,-9111.868461
691.902013,995.414202,-1129.412267,-9265.009107
691.904556,612.562586,-2603.390989,-9188.438784
691.907099,153.140646,-1014.556782,-9111.868461
691.909642,-325.423874,-229.710970,-8843.872330
691.912185,-861.416136,325.423874,-8863.014910
691.914727,-689.132909,-516.849682,-9169.296203
691.917270,-650.847747,-631.705166,-9092.725880
691.919813,248.853550,-1033.699363,-8882.157491
691.922356,631.705166,-1052.841944,-9054.440718
691.924899,-842.273555,-708.275490,-8863.014910
691.927441,-1359.123237,899.701298,-8977.870395
691.929984,287.138712,-2086.541307,-9150.153622
691.932527,555.134843,-248.853550,-9341.579430
691.935070,1531.406464,-1741.974853,-9360.722011
691.937613,631.705166,-842.273555,-9131.011042
691.940155,803.988394,1052.841944,-8786.444587
691.942698,114.855485,-2297.109696,-9188.438784
691.945241,-172.283227,-880.558717,-9131.011042
691.947784,-459.421939,-1359.123237,-9131.011042
691.950327,-1741.974853,4728.217458,-8767.302006
691.952869,-2297.109696,-153.140646,-8939.585234
691.955412,-2871.387120,1512.263883,-8901.300072
691.957955,-1435.693560,-57.427742,-9188.438784
691.960498,-497.707101,497.707101,-9054.440718
691.963041,-842.273555,1071.984525,-9016.155557
691.965583,-172.283227,1703.689691,-8939.585234
691.968126,-1339.980656,1454.836141,-8882.157491
691.970674,-861.416136,-823.130974,-8997.012976
691.973222,-2565.105827,-995.414202,-9303.294269
691.975769,-669.990328,287.138712,-9150.153622
691.978317,-669.990328,1607.976787,-9092.725880
691.980864,-1741.974853,1129.412267,-8805.587168
691.983412,-2143.969050,1033.699363,-8786.444587
691.985960,-2967.100024,555.134843,-8824.729749
691.988507,-2507.678085,1914.258080,-9111.868461
691.991055,-1875.972918,287.138712,-9188.438784
691.993603,-1512.263883,-76.570323,-8977.870395
691.996150,114.855485,880.558717,-9131.011042
691.998698,-861.416136,-1550.549045,-9150.153622
692.001245,1129.412267,-191.425808,-9303.294269
692.003793,306.281293,-3771.088418,-9245.866526
692.006341,306.281293,-1033.699363,-9131.011042
692.008888,306.281293,-191.425808,-8920.442653
692.011436,-861.416136,918.843878,-8843.872330
692.013984,-823.130974,-593.420005,-9169.296203
692.016531,-995.414202,-1799.402595,-9265.009107
692.019079,363.709035,-2009.970984,-9265.009107
692.021626,-957.129040,-1397.408398,-9169.296203
692.024174,133.998066,1148.554848,-9092.725880
692.026722,-172.283227,-3369.094221,-9111.868461
692.029269,-842.273555,210.568389,-9073.583299
692.031817,1110.269686,-2890.529701,-9533.005238
692.034365,459.421939,-133.998066,-8997.012976
692.036912,1493.121302,-880.558717,-9150.153622
692.039460,-229.710970,-363.709035,-8901.300072
692.042007,995.414202,-1263.410333,-9111.868461
692.044555,-363.709035,-1607.976787,-9207.581365
692.047103,-1110.269686,1148.554848,-9188.438784
692.049650,-1875.972918,2354.537438,-8786.444587
692.052198,-1780.260014,2928.814862,-8786.444587
692.054746,-2277.967115,-229.710970,-8997.012976
692.057293,-2029.113565,784.845813,-9207.581365
692.059841,-325.423874,133.998066,-9111.868461
692.062388,-708.275490,1837.687757,-8958.727814
692.064936,-114.855485,1186.840010,-8997.012976
692.067484,-1244.267752,555.134843,-8977.870395
692.070031,-1952.543242,267.996131,-8824.729749
692.072583,-1569.691626,-363.709035,-9245.866526
692.075135,-746.560651,574.277424,-9226.723946
692.077687,-880.558717,2641.676150,-8863.014910
692.080239,-1607.976787,1397.408398,-8748.159426
692.082792,-2469.392923,2086.541307,-8633.303941
692.085344,-2794.816797,-114.855485,-8997.012976
692.087896,-2852.244539,1856.830338,-9092.725880
692.090448,-1761.117434,325.423874,-9073.583299
692.093000,-1339.980656,-210.568389,-9035.298138
692.095552,-38.285162,1531.406464,-9035.298138
692.098104,401.994197,-2660.818731,-9207.581365
692.100656,784.845813,-325.423874,-9265.009107
692.103208,555.134843,-3349.951640,-9303.294269
692.105760,0.000000,-1225.125171,-9169.296203
692.108312,-593.420005,248.853550,-8882.157491
692.110864,-650.847747,459.421939,-8977.870395
692.113416,-1052.841944,-1550.549045,-9207.581365
692.115968,-114.855485,-1052.841944,-9054.440718
692.118520,76.570323,-2584.248408,-9265.009107
692.121072,-401.994197,880.558717,-9035.298138
692.123624,-76.570323,57.427742,-8843.872330
692.126176,-1378.265818,-1014.556782,-8958.727814
692.128728,363.709035,-861.416136,-9379.864592
692.131280,689.132909,-3177.668413,-9628.718142
692.133832,880.558717,38.285162,-9188.438784
692.136384,765.703232,-899.701298,-9016.155557
692.138937,-248.853550,-401.994197,-8843.872330
692.141489,401.994197,-2048.256146,-9265.009107
692.144041,-497.707101,-401.994197,-9150.153622
692.146593,-1014.556782,2794.816797,-8882.157491
692.149145,-2277.967115,440.279358,-8767.302006
692.151697,-2507.678085,2297.109696,-8824.729749
692.154249,-1933.400661,-306.281293,-9073.583299
692.156801,-1282.552914,842.273555,-9131.011042
692.159353,-344.566454,631.705166,-9092.725880
692.161905,-191.425808,2086.541307,-8997.012976
692.164457,-574.277424,1607.976787,-8863.014910
692.167009,-1282.552914,1014.556782,-9016.155557
692.169561,-1320.838075,-1205.982590,-9169.296203
692.172113,-1014.556782,267.996131,-9111.868461
692.174652,-344.566454,2297.109696,-9092.725880
692.177191,-2029.113565,1014.556782,-8824.729749
692.179730,-2392.822600,1875.972918,-8614.161360
692.182269,-2775.674216,153.140646,-9016.155557
692.184808,-2679.961312,1914.258080,-9073.583299
692.187347,-1684.547110,1493.121302,-9073.583299
692.189886,-1512.263883,-708.275490,-8997.012976
692.192425,-76.570323,2373.680019,-8977.870395
692.194964,-325.423874,-3254.238736,-9150.153622
692.197502,1320.838075,1627.119368,-9265.009107
692.200041,382.851616,-4823.930362,-9322.436850
692.202580,-382.851616,-631.705166,-9092.725880
692.205119,-650.847747,-1301.695494,-8939.585234
692.207658,-727.418070,727.418070,-9035.298138
692.210197,-976.271621,-1167.697429,-9245.866526
692.212736,-918.843878,-2067.398726,-9131.011042
692.215275,-803.988394,-708.275490,-9111.868461
692.217814,957.129040,95.712904,-9111.868461
692.220353,-421.136778,1225.125171,-8882.157491
692.222892,0.000000,-1588.834206,-8805.587168
692.225431,535.992262,-1282.552914,-9322.436850
692.227970,1071.984525,-1722.832272,-9475.577496
692.230509,708.275490,-1071.984525,-9341.579430
692.233048,421.136778,38.285162,-8882.157491
692.235587,191.425808,-1761.117434,-9073.583299
692.238125,306.281293,-823.130974,-9188.438784
692.240664,172.283227,-1052.841944,-9150.153622
692.243203,-1435.693560,3924.229064,-8709.874264
692.245742,-2718.246474,153.140646,-8863.014910
692.248281,-2469.392923,2392.822600,-8843.872330
692.250820,-1971.685822,-153.140646,-9092.725880
692.253359,-1263.410333,937.986459,-9092.725880
692.255898,-459.421939,708.275490,-9016.155557
692.258437,-421.136778,2316.252277,-9016.155557
692.260976,-803.988394,765.703232,-9073.583299
692.263515,-918.843878,-2220.539373,-9150.153622
692.266054,-3024.527766,2392.822600,-8939.585234
692.268593,401.994197,1014.556782,-9265.009107
692.271132,-612.562586,-478.564520,-9016.155557
692.273671,-1473.978722,2545.963246,-8824.729749
692.276215,-3043.670347,516.849682,-8824.729749
692.278760,-2928.814862,1990.828403,-8767.302006
692.281304,-2220.539373,-708.275490,-9379.864592
692.283849,-2239.681954,2105.683888,-9054.440718
692.286393,-765.703232,-708.275490,-9111.868461
692.288938,-727.418070,3273.381317,-8824.729749
692.291483,421.136778,-4421.936165,-9207.581365
692.294027,1550.549045,1684.547110,-9092.725880
692.296572,803.988394,-4441.078746,-9418.149754
692.299116,-153.140646,-708.275490,-9131.011042
692.301661,-1071.984525,-57.427742,-8958.727814
692.304205,-555.134843,-306.281293,-9073.583299
692.306750,-1014.556782,-114.855485,-9131.011042
692.309295,-593.420005,-2354.537438,-9150.153622
692.311839,306.281293,-937.986459,-9150.153622
692.314384,-114.855485,-57.427742,-9035.298138
692.316928,-631.705166,1205.982590,-8805.587168
692.319473,-937.986459,-2411.965181,-8863.014910
692.322017,344.566454,-1282.552914,-9399.007173
692.324562,1244.267752,-3024.527766,-9494.720077
692.327107,593.420005,440.279358,-9131.011042
692.329651,918.843878,-478.564520,-8958.727814
692.332196,0.000000,-631.705166,-8939.585234
692.334740,555.134843,-2373.680019,-9207.581365
692.337285,-1454.836141,574.277424,-9150.153622
692.339829,-2086.541307,3388.236802,-8805.587168
692.342374,-2565.105827,535.992262,-8748.159426
692.344919,-2277.967115,2469.392923,-8786.444587
692.347463,-2048.256146,-957.129040,-9054.440718
692.350008,-1033.699363,995.414202,-9073.583299
692.352552,-133.998066,574.277424,-9054.440718
692.355097,-248.853550,2277.967115,-8997.012976
692.357641,-689.132909,114.855485,-8958.727814
692.360186,-2163.111630,-1301.695494,-8958.727814
692.362731,-1531.406464,1684.547110,-9016.155557
692.365275,-114.855485,-842.273555,-9552.147819
692.367820,-1186.840010,2163.111630,-8901.300072
692.370364,-2067.398726,1263.410333,-8767.302006
692.372909,-3120.240670,2316.252277,-8652.446522
692.375453,-2143.969050,-210.568389,-8997.012976
692.378003,-1971.685822,19.142581,-9188.438784
692.380553,-1129.412267,995.414202,-9016.155557
692.383103,-363.709035,995.414202,-8997.012976
692.385653,-727.418070,440.279358,-8958.727814
692.388202,1148.554848,-2986.242605,-9245.866526
692.390752,1225.125171,-1627.119368,-9150.153622
692.393302,1091.127106,-2507.678085,-9284.151688
692.395852,210.568389,497.707101,-9016.155557
692.398401,-1110.269686,344.566454,-8920.442653
692.400951,-1225.125171,-631.705166,-9150.153622
692.403501,-1225.125171,-2220.539373,-9207.581365
692.406051,-803.988394,-2258.824534,-9303.294269
692.408601,287.138712,172.283227,-9207.581365
692.411150,880.558717,-344.566454,-8920.442653
692.413700,-1416.550979,382.851616,-8843.872330
692.416250,248.853550,-2029.113565,-9226.723946
692.418800,937.986459,-2277.967115,-9552.147819
692.421349,1052.841944,-880.558717,-9303.294269
692.423899,746.560651,-803.988394,-8977.870395
692.426449,-210.568389,-478.564520,-8824.729749
692.428999,421.136778,-1780.260014,-9111.868461
692.431549,-382.851616,-210.568389,-9150.153622
692.434098,-1091.127106,2871.387120,-8977.870395
692.436648,-2431.107762,133.998066,-8958.727814
692.439198,-2928.814862,2833.101958,-8824.729749
692.441748,-2086.541307,-421.136778,-9035.298138
692.444297,-1684.547110,1033.699363,-8977.870395
692.446847,-95.712904,229.710970,-9131.011042
692.449397,-421.136778,1722.832272,-9131.011042
692.451947,57.427742,2201.396792,-8863.014910
692.454497,-478.564520,382.851616,-9016.155557
692.457046,-1110.269686,1933.400661,-8709.874264
692.459596,-19.142581,210.568389,-9341.579430
692.462146,-593.420005,1148.554848,-9016.155557
692.464696,-2431.107762,2124.826469,-8863.014910
692.467245,-2890.529701,1818.545176,-8729.016845
692.469795,-2584.248408,1454.836141,-8920.442653
692.472345,-2067.398726,0.000000,-9284.151688
692.474895,-1856.830338,459.421939,-9073.583299
692.477445,-267.996131,459.421939,-9035.298138
692.479998,-650.847747,1110.269686,-8901.300072
692.482552,1129.412267,-2488.535504,-9169.296203
692.485106,1148.554848,-1473.978722,-9035.298138
692.487660,1244.267752,-2182.254211,-9341.579430
692.490214,344.566454,-191.425808,-9169.296203
692.492768,-880.558717,-210.568389,-9035.298138
692.495322,-861.416136,-440.279358,-8939.585234
692.497876,-1416.550979,19.142581,-8977.870395
692.500430,421.136778,-363.709035,-9016.155557
692.502984,-133.998066,-3081.955509,-9111.868461
692.505538,-210.568389,1971.685822,-8709.874264
692.508092,440.279358,-593.420005,-8709.874264
692.510646,-669.990328,325.423874,-8748.159426
692.513200,1129.412267,-3062.812928,-9494.720077
692.515754,516.849682,-2316.252277,-9475.577496
692.518308,631.705166,823.130974,-9016.155557
692.520862,574.277424,-2086.541307,-8901.300072
692.523416,0.000000,344.566454,-8901.300072
692.525969,19.142581,-1665.404530,-9111.868461
692.528523,-1837.687757,4498.506488,-8901.300072
692.531077,-2258.824534,-842.273555,-8958.727814
692.533631,-3273.381317,2679.961312,-8863.014910
692.536185,-2009.970984,-57.427742,-8939.585234
692.538739,-1493.121302,1454.836141,-8977.870395
692.541293,-325.423874,784.845813,-9054.440718
692.543847,-19.142581,937.986459,-9111.868461
692.546401,-153.140646,1186.840010,-8958.727814
692.548955,-1952.543242,-497.707101,-9054.440718
692.551509,-1971.685822,746.560651,-9016.155557
692.554063,-287.138712,-114.855485,-9131.011042
692.556617,-1052.841944,2277.967115,-9073.583299
692.559171,-1703.689691,1531.406464,-8690.731683
692.561725,-2986.242605,2220.539373,-8614.161360
692.564279,-2794.816797,1244.267752,-8920.442653
692.566833,-2297.109696,114.855485,-9188.438784
692.569386,-1493.121302,612.562586,-9054.440718
692.571940,-38.285162,1493.121302,-9073.583299
692.574494,-401.994197,-1167.697429,-8977.870395
692.577048,1110.269686,-459.421939,-9188.438784
692.579602,516.849682,-4421.936165,-9245.866526
692.582161,823.130974,-1665.404530,-9169.296203
692.584718,1148.554848,-287.138712,-9073.583299
692.587276,-861.416136,823.130974,-8843.872330
692.589834,-823.130974,133.998066,-9035.298138
692.592392,-1110.269686,-612.562586,-8997.012976
692.594949,-76.570323,-2737.389054,-9360.722011
692.597507,-574.277424,-727.418070,-9092.725880
692.600065,-267.996131,-114.855485,-8901.300072
692.602622,-1033.699363,-650.847747,-8805.587168
692.605180,287.138712,-325.423874,-9188.438784
692.607738,1033.699363,-2718.246474,-9418.149754
692.610296,459.421939,-191.425808,-9226.723946
692.612853,861.416136,-1741.974853,-9188.438784
692.615411,172.283227,-95.712904,-8805.587168
692.617969,382.851616,-1569.691626,-9150.153622
692.620526,-1875.972918,2143.969050,-9016.155557
692.623084,-1761.117434,1665.404530,-8939.585234
692.625642,-1971.685822,1856.830338,-8882.157491
692.628200,-2967.100024,421.136778,-8901.300072
692.630757,-2507.678085,957.129040,-8977.870395
692.633315,-880.558717,248.853550,-8958.727814
692.635873,-421.136778,2297.109696,-9035.298138
692.638430,325.423874,1569.691626,-9073.583299
692.640988,-229.710970,689.132909,-8939.585234
692.643546,-1569.691626,-995.414202,-8882.157491
692.646104,-2258.824534,1933.400661,-8786.444587
692.648661,-133.998066,2469.392923,-9188.438784
692.651219,-1569.691626,1091.127106,-9073.583299
692.653777,-2182.254211,2124.826469,-8595.018779
692.656334,-2909.672282,248.853550,-8786.444587
692.658892,-3081.955509,2182.254211,-9035.298138
692.661450,-1818.545176,-421.136778,-9265.009107
692.664008,-1416.550979,746.560651,-8977.870395
692.666565,267.996131,1569.691626,-9035.298138
692.669123,650.847747,-3885.943902,-9111.868461
692.671681,1512.263883,1129.412267,-9054.440718
692.674238,1052.841944,-3637.090352,-9379.864592
692.676796,57.427742,-421.136778,-9150.153622
692.679354,-248.853550,-1684.547110,-9054.440718
692.681912,-861.416136,1205.982590,-8939.585234
692.684456,-957.129040,-1148.554848,-9169.296203
692.687000,-1052.841944,-1110.269686,-9188.438784
692.689544,440.279358,-861.416136,-9092.725880
692.692088,1397.408398,-803.988394,-8920.442653
692.694632,-1588.834206,689.132909,-8920.442653
692.697176,-325.423874,-2067.398726,-9054.440718
692.699720,708.275490,-1435.693560,-9494.720077
692.702264,1665.404530,-1895.115499,-9322.436850
692.704808,765.703232,-976.271621,-9265.009107
692.707352,382.851616,-1091.127106,-8843.872330
692.709896,76.570323,-1493.121302,-9073.583299
692.712440,-746.560651,459.421939,-8977.870395
692.714984,-1091.127106,3579.662610,-8939.585234
692.717528,-2737.389054,133.998066,-8997.012976
692.720072,-2699.103893,2431.107762,-8939.585234
692.722616,-2335.394858,-363.709035,-8977.870395
692.725160,-1933.400661,1320.838075,-8901.300072
692.727704,-19.142581,1473.978722,-8977.870395
692.730248,-76.570323,1493.121302,-9035.298138
692.732792,-1033.699363,-191.425808,-9131.011042
692.735336,-574.277424,1071.984525,-8901.300072
692.737881,-2086.541307,363.709035,-8939.585234
692.740425,-306.281293,2775.674216,-8882.157491
692.742969,-459.421939,1263.410333,-9092.725880
692.745513,-2871.387120,2545.963246,-8729.016845
692.748057,-2622.533570,497.707101,-8939.585234
692.750601,-2833.101958,574.277424,-8901.300072
692.753145,-1780.260014,1167.697429,-9245.866526
692.755689,-1493.121302,-555.134843,-9092.725880
692.758233,-95.712904,2679.961312,-8939.585234
692.760777,-325.423874,-3062.812928,-9054.440718
692.763321,1052.841944,880.558717,-9207.581365
692.765865,1301.695494,-4862.215523,-9322.436850
692.768409,-267.996131,-689.132909,-9054.440718
692.770953,267.996131,-1033.699363,-9188.438784
692.773497,-784.845813,765.703232,-8920.442653
692.776041,-1071.984525,-1148.554848,-9073.583299
692.778585,-1493.121302,-3273.381317,-9322.436850
692.781129,-2029.113565,-114.855485,-9035.298138
692.783673,2201.396792,899.701298,-9245.866526
692.786223,248.853550,-1531.406464,-8882.157491
692.788772,-861.416136,459.421939,-8767.302006
692.791321,1320.838075,-3024.527766,-9437.292334
692.793870,593.420005,-229.710970,-9341.579430
692.796419,1684.547110,-1091.127106,-9245.866526
692.798969,-229.710970,-1722.832272,-8977.870395
692.801518,555.134843,-1244.267752,-8939.585234
692.804067,-746.560651,-1225.125171,-8977.870395
692.806616,-2086.541307,5608.776174,-8863.014910
692.809165,-1952.543242,-1052.841944,-9073.583299
692.811715,-3330.809059,3445.664544,-8920.442653
692.814264,-1607.976787,-1244.267752,-8977.870395
692.816813,-2258.824534,1990.828403,-8824.729749
692.819362,-421.136778,440.279358,-9092.725880
692.821912,-267.996131,1741.974853,-9150.153622
692.824461,-191.425808,2526.820666,-8863.014910
692.827010,-210.568389,-2067.398726,-8997.012976
692.829559,-2163.111630,1875.972918,-8901.300072
692.832108,-382.851616,-267.996131,-9265.009107
692.834658,-1129.412267,2718.246474,-8939.585234
692.837207,-2201.396792,1244.267752,-8882.157491
692.839756,-2967.100024,1856.830338,-8786.444587
692.842305,-2928.814862,114.855485,-9016.155557
692.844855,-1971.685822,746.560651,-9131.011042
692.847404,-1129.412267,-95.712904,-9111.868461
692.849953,-248.853550,2986.242605,-8901.300072
692.852502,478.564520,-3579.662610,-9073.583299
692.855051,899.701298,516.849682,-9150.153622
692.857601,1263.410333,-4479.363907,-9418.149754
692.860150,267.996131,-1837.687757,-9188.438784
692.862699,-440.279358,76.570323,-9054.440718
692.865248,-899.701298,-57.427742,-8997.012976
692.867797,-1378.265818,-1033.699363,-9188.438784
692.870347,-1167.697429,-3541.377448,-9245.866526
692.872896,-708.275490,95.712904,-9207.581365
692.875445,880.558717,-2469.392923,-9418.149754
692.877994,-1301.695494,976.271621,-8671.589102
692.880544,38.285162,-1473.978722,-8939.585234
692.883093,631.705166,-2277.967115,-9456.434915
692.885642,1837.687757,-631.705166,-9207.581365
692.888196,957.129040,-1818.545176,-9207.581365
692.890750,535.992262,-248.853550,-9054.440718
692.893304,95.712904,-2105.683888,-8958.727814
692.895858,-1148.554848,1665.404530,-8843.872330
692.898412,-1722.832272,1722.832272,-8863.014910
692.900965,-2182.254211,2316.252277,-9035.298138
692.903519,-2794.816797,363.709035,-9035.298138
692.906073,-2679.961312,861.416136,-8939.585234
692.908627,-1263.410333,-287.138712,-8920.442653
692.911181,-382.851616,2335.394858,-8843.872330
692.913735,382.851616,1837.687757,-9073.583299
692.916289,57.427742,1741.974853,-9035.298138
692.918843,-459.421939,-1129.412267,-9073.583299
692.921397,-2852.244539,0.000000,-9016.155557
692.923951,-765.703232,2565.105827,-9131.011042
692.926505,-1186.840010,1454.836141,-8843.872330
692.929059,-2565.105827,3062.812928,-8671.589102
692.931612,-2507.678085,516.849682,-8767.302006
692.934166,-2833.101958,1473.978722,-8939.585234
692.936720,-1550.549045,-669.990328,-9226.723946
692.939274,-516.849682,344.566454,-9150.153622
692.941828,-114.855485,1033.699363,-8863.014910
692.944382,823.130974,-2718.246474,-9054.440718
692.946936,1339.980656,-1301.695494,-9111.868461
692.949490,1359.123237,-3005.385186,-9322.436850
692.952044,114.855485,-287.138712,-9092.725880
692.954598,-497.707101,-267.996131,-8977.870395
692.957152,-1014.556782,-191.425808,-9111.868461
692.959705,-1282.552914,-1148.554848,-9073.583299
692.962259,-516.849682,-3005.385186,-9245.866526
692.964813,-1110.269686,-2335.394858,-9379.864592
692.967367,-57.427742,95.712904,-8958.727814
692.969925,-344.566454,153.140646,-8863.014910
692.972483,555.134843,-937.986459,-9131.011042
692.975040,1378.265818,-2143.969050,-9360.722011
692.977598,1110.269686,-1875.972918,-9265.009107
692.980156,38.285162,-1339.980656,-9169.296203
692.982713,363.709035,-1607.976787,-9092.725880
692.985271,-555.134843,-38.285162,-8824.729749
692.987829,-1722.832272,3177.668413,-8729.016845
692.990386,-2947.957443,1014.556782,-8997.012976
692.992944,-2048.256146,2526.820666,-9035.298138
692.995502,-2354.537438,-612.562586,-9131.011042
692.998059,-1818.545176,1569.691626,-8824.729749
693.000617,-574.277424,440.279358,-8977.870395
693.003175,-229.710970,2201.396792,-8805.587168
693.005732,-344.566454,57.427742,-9207.581365
693.008290,-650.847747,1033.699363,-8958.727814
693.010848,-1895.115499,-57.427742,-9035.298138
693.013405,-1263.410333,2431.107762,-8863.014910
693.015963,-1129.412267,1646.261949,-9092.725880
693.018521,-2603.390989,1875.972918,-8748.159426
693.021078,-2316.252277,1627.119368,-8843.872330
693.023636,-2641.676150,114.855485,-8958.727814
693.026194,-2067.398726,1359.123237,-9188.438784
693.028751,-1301.695494,-1588.834206,-9169.296203
693.031309,-95.712904,3637.090352,-8882.157491
693.033867,248.853550,-4077.369710,-9131.011042
693.036424,1167.697429,325.423874,-9111.868461
693.038982,1799.402595,-3330.809059,-9265.009107
693.041540,344.566454,-650.847747,-9150.153622
693.044097,-535.992262,-440.279358,-9092.725880
693.046655,-765.703232,19.142581,-9035.298138
693.049213,-1071.984525,382.851616,-8901.300072
693.051770,-76.570323,-153.140646,-9016.155557
693.054328,1359.123237,-2335.394858,-9207.581365
693.056886,-344.566454,-976.271621,-8786.444587
693.059443,-1091.127106,535.992262,-8939.585234
693.062001,-19.142581,-1933.400661,-9188.438784
693.064559,1914.258080,-191.425808,-9207.581365
693.067116,1359.123237,-3503.092286,-9437.292334
693.069674,-38.285162,306.281293,-9111.868461
693.072235,1263.410333,-2852.244539,-9092.725880
693.074796,-1110.269686,172.283227,-8920.442653
693.077357,-1052.841944,3254.238736,-8729.016845
693.079918,-3522.234867,880.558717,-8920.442653
693.082479,-1703.689691,3196.810994,-9054.440718
693.085041,-2622.533570,-689.132909,-9054.440718
693.087602,-2411.965181,899.701298,-9111.868461
693.090163,-650.847747,-57.427742,-8939.585234
693.092724,-535.992262,3349.951640,-8786.444587
693.095285,191.425808,1895.115499,-9016.155557
693.097846,-765.703232,-1607.976787,-9035.298138
693.100407,-1052.841944,1493.121302,-8958.727814
693.102968,-803.988394,-1129.412267,-9169.296203
693.105529,-1761.117434,2986.242605,-8939.585234
693.108090,-1895.115499,880.558717,-8882.157491
693.110651,-3292.523898,2622.533570,-8709.874264
693.113212,-2277.967115,401.994197,-9016.155557
693.115773,-2009.970984,-133.998066,-9092.725880
693.118334,-1091.127106,-382.851616,-9131.011042
693.120896,-76.570323,2986.242605,-8920.442653
693.123457,344.566454,-3771.088418,-9054.440718
693.126018,1435.693560,708.275490,-9150.153622
693.128579,1416.550979,-4115.654872,-9418.149754
693.131140,516.849682,-1627.119368,-9150.153622
693.133701,-38.285162,669.990328,-8824.729749
693.136262,-1091.127106,-363.709035,-9073.583299
693.138823,-1071.984525,1225.125171,-8863.014910
693.141384,57.427742,-3790.230998,-9341.579430
693.143945,-1416.550979,-38.285162,-9016.155557
693.146506,1397.408398,-880.558717,-8939.585234
693.149067,-1091.127106,-440.279358,-8863.014910
693.151628,287.138712,421.136778,-9131.011042
693.154189,1359.123237,-3311.666478,-9533.005238
693.156750,899.701298,114.855485,-9188.438784
693.159312,995.414202,-2871.387120,-9341.579430
693.161873,172.283227,-287.138712,-9054.440718
693.164434,191.425808,-1454.836141,-9054.440718
693.166995,-2507.678085,4211.367776,-8518.448456
693.169556,-2986.242605,612.562586,-9016.155557
693.172117,-2967.100024,1378.265818,-9092.725880
693.174681,-2373.680019,689.132909,-9169.296203
693.177245,-1320.838075,76.570323,-8863.014910
693.179810,-957.129040,1205.982590,-8997.012976
693.182374,38.285162,1186.840010,-8939.585234
693.184938,746.560651,1761.117434,-8863.014910
693.187502,-1244.267752,-1569.691626,-9245.866526
693.190066,-3005.385186,1186.840010,-9035.298138
693.192631,-57.427742,765.703232,-9169.296203
693.195195,-1359.123237,2354.537438,-8882.157491
693.197759,-2201.396792,2029.113565,-8786.444587
693.200323,-3311.666478,1588.834206,-8786.444587
693.202888,-2335.394858,1416.550979,-8977.870395
693.205452,-1761.117434,-1493.121302,-9265.009107
693.208016,-631.705166,1397.408398,-9054.440718
693.210580,287.138712,-2143.969050,-9035.298138
693.213145,708.275490,497.707101,-9035.298138
693.215709,1167.697429,-4192.225195,-9322.436850
693.218273,593.420005,-2048.256146,-9265.009107
693.220837,1493.121302,-1703.689691,-9150.153622
693.223401,-593.420005,1569.691626,-8920.442653
693.225966,-1397.408398,-937.986459,-9207.581365
693.228530,-1378.265818,-1225.125171,-9054.440718
693.231094,-95.712904,-1473.978722,-9150.153622
693.233658,-267.996131,-3062.812928,-9226.723946
