#time,accel_x,accel_y,accel_z
1037.454171,-650.847747,76.570323,-8958.727814
1037.456616,-727.418070,38.285162,-9054.440718
1037.459061,-803.988394,57.427742,-9073.583299
1037.461507,-1282.552914,-2067.398726,-8997.012976
1037.463952,1914.258080,-1646.261949,-8729.016845
1037.466397,-1301.695494,1110.269686,-8997.012976
1037.468842,-2048.256146,-1416.550979,-8920.442653
1037.471288,-976.271621,325.423874,-8997.012976
1037.473733,-2297.109696,-2048.256146,-8901.300072
1037.476178,-803.988394,-76.570323,-8901.300072
1037.478624,-2220.539373,-708.275490,-8843.872330
1037.481069,-842.273555,555.134843,-9111.868461
1037.483514,-1091.127106,-76.570323,-9092.725880
1037.486006,191.425808,306.281293,-9092.725880
1037.488498,95.712904,-210.568389,-9073.583299
1037.490991,-784.845813,-1550.549045,-9073.583299
1037.493483,-1339.980656,153.140646,-8882.157491
1037.495975,-1971.685822,918.843878,-8939.585234
1037.498467,-842.273555,2584.248408,-9131.011042
1037.500959,210.568389,555.134843,-9341.579430
1037.503452,1110.269686,133.998066,-9207.581365
1037.505944,-172.283227,-1550.549045,-9111.868461
1037.508436,267.996131,0.000000,-9016.155557
1037.510928,-382.851616,1435.693560,-9016.155557
1037.513420,-880.558717,1301.695494,-9073.583299
1037.515912,-516.849682,114.855485,-9073.583299
1037.518405,-1110.269686,287.138712,-9379.864592
1037.520897,555.134843,229.710970,-8939.585234
1037.523389,-746.560651,957.129040,-9188.438784
1037.525881,-1091.127106,612.562586,-9169.296203
1037.528373,-516.849682,248.853550,-8805.587168
1037.530865,-1416.550979,1454.836141,-9456.434915
1037.533358,-2086.541307,267.996131,-9609.575562
1037.535850,880.558717,918.843878,-8997.012976
1037.538342,-191.425808,-555.134843,-8997.012976
1037.540834,1186.840010,1588.834206,-8977.870395
1037.543326,-765.703232,19.142581,-9226.723946
1037.545818,574.277424,-306.281293,-9341.579430
1037.548311,57.427742,1148.554848,-8958.727814
1037.550803,-1359.123237,-153.140646,-9035.298138
1037.553295,-784.845813,1512.263883,-8977.870395
1037.555787,-593.420005,516.849682,-9035.298138
1037.558279,497.707101,478.564520,-9245.866526
1037.560772,38.285162,-248.853550,-9303.294269
1037.563264,555.134843,-593.420005,-8977.870395
1037.565756,-344.566454,861.416136,-8920.442653
1037.568248,210.568389,1837.687757,-9073.583299
1037.570740,344.566454,2411.965181,-9131.011042
1037.573232,95.712904,-57.427742,-9073.583299
1037.575725,-1148.554848,-2450.250342,-8997.012976
1037.578217,-440.279358,-2699.103893,-9073.583299
1037.580709,-1818.545176,-421.136778,-9035.298138
1037.583201,-2086.541307,-19.142581,-8786.444587
1037.585616,-1071.984525,2182.254211,-8958.727814
1037.588031,-1665.404530,-574.277424,-9207.581365
1037.590445,95.712904,-823.130974,-9188.438784
1037.592860,-784.845813,-1627.119368,-8958.727814
1037.595275,-631.705166,-612.562586,-8920.442653
1037.597690,-1435.693560,-267.996131,-8863.014910
1037.600104,-1493.121302,344.566454,-8977.870395
1037.602519,-1646.261949,708.275490,-9150.153622
1037.604934,-1454.836141,-612.562586,-9111.868461
1037.607348,-1033.699363,-1129.412267,-8901.300072
1037.609763,-1588.834206,-861.416136,-8901.300072
1037.612178,-1052.841944,-401.994197,-8920.442653
1037.614593,-1320.838075,1071.984525,-9188.438784
1037.617007,-1263.410333,382.851616,-9016.155557
1037.619422,-3043.670347,937.986459,-9399.007173
1037.621837,-4594.219392,-2086.541307,-9207.581365
1037.624252,-344.566454,210.568389,-9150.153622
1037.626666,-172.283227,-3196.810994,-8901.300072
1037.629081,1110.269686,727.418070,-8690.731683
1037.631496,-2411.965181,-2660.818731,-8939.585234
1037.633911,-708.275490,1033.699363,-9054.440718
1037.636325,-2679.961312,-1091.127106,-9035.298138
1037.638740,-1186.840010,574.277424,-8882.157491
1037.641155,-1761.117434,-229.710970,-8767.302006
1037.643569,-765.703232,-401.994197,-9169.296203
1037.645984,172.283227,-478.564520,-9131.011042
1037.648399,-937.986459,-842.273555,-9035.298138
1037.650814,-1167.697429,-1282.552914,-8977.870395
1037.653228,-1378.265818,-497.707101,-8767.302006
1037.655643,-2277.967115,267.996131,-9016.155557
1037.658058,-1148.554848,1091.127106,-9035.298138
1037.660473,-689.132909,-172.283227,-9092.725880
1037.662887,-1799.402595,-2029.113565,-9169.296203
1037.665302,-708.275490,-1531.406464,-8997.012976
1037.667717,-689.132909,95.712904,-9035.298138
1037.670132,382.851616,516.849682,-9035.298138
1037.672546,-976.271621,1129.412267,-8977.870395
1037.674961,555.134843,2029.113565,-9092.725880
1037.677376,765.703232,1990.828403,-9284.151688
1037.679791,708.275490,-803.988394,-9303.294269
1037.682258,-382.851616,-229.710970,-9016.155557
1037.684726,-1799.402595,-1569.691626,-8939.585234
1037.687193,-478.564520,1397.408398,-8920.442653
1037.689661,-861.416136,2029.113565,-9188.438784
1037.692129,727.418070,1473.978722,-9188.438784
1037.694596,995.414202,-1148.554848,-9073.583299
1037.697064,210.568389,-1205.982590,-9073.583299
1037.699531,-325.423874,38.285162,-8997.012976
1037.701999,-133.998066,1569.691626,-9016.155557
1037.704467,-401.994197,803.988394,-9092.725880
1037.706934,-497.707101,2354.537438,-9513.862658
1037.709402,-1244.267752,306.281293,-9054.440718
1037.711869,-2545.963246,-937.986459,-9245.866526
1037.714337,-1627.119368,133.998066,-9265.009107
1037.716805,382.851616,2086.541307,-8882.157491
1037.719272,-1799.402595,-1952.543242,-8901.300072
1037.721740,2277.967115,1856.830338,-9092.725880
1037.724207,-497.707101,-1454.836141,-9111.868461
1037.726675,631.705166,114.855485,-9303.294269
1037.729143,114.855485,1780.260014,-9111.868461
1037.731610,-440.279358,-842.273555,-9054.440718
1037.734078,842.273555,1225.125171,-8977.870395
1037.736545,-2067.398726,-823.130974,-9150.153622
1037.739013,38.285162,899.701298,-9169.296203
1037.741481,-306.281293,1244.267752,-9226.723946
1037.743948,267.996131,650.847747,-9111.868461
1037.746416,-497.707101,-38.285162,-9016.155557
1037.748883,-650.847747,-1512.263883,-9111.868461
1037.751351,-76.570323,574.277424,-9150.153622
1037.753819,287.138712,2277.967115,-9207.581365
1037.756286,823.130974,2756.531635,-9245.866526
1037.758754,-478.564520,-57.427742,-8958.727814
1037.761221,-918.843878,-2431.107762,-8939.585234
1037.763689,-19.142581,-3043.670347,-9054.440718
1037.766157,-2488.535504,-823.130974,-9016.155557
1037.768624,-3445.664544,555.134843,-8882.157491
1037.771092,-1052.841944,2699.103893,-8882.157491
1037.773559,-1091.127106,-1167.697429,-9092.725880
1037.776027,210.568389,-669.990328,-9131.011042
1037.778494,-784.845813,-1933.400661,-9054.440718
1037.781000,-593.420005,-937.986459,-9016.155557
1037.783505,-1033.699363,133.998066,-8824.729749
1037.786010,-2086.541307,689.132909,-8863.014910
1037.788515,-2009.970984,344.566454,-9035.298138
1037.791020,-1837.687757,-1052.841944,-9284.151688
1037.793525,-708.275490,-593.420005,-9111.868461
1037.796030,-1301.695494,-631.705166,-8901.300072
1037.798535,-612.562586,-995.414202,-8614.161360
1037.801040,-1741.974853,133.998066,-9054.440718
1037.803545,-535.992262,-765.703232,-9092.725880
1037.806050,516.849682,-306.281293,-9073.583299
1037.808555,-727.418070,-172.283227,-9150.153622
1037.811060,-229.710970,-1914.258080,-8633.303941
1037.813565,306.281293,-153.140646,-8690.731683
1037.816070,-2947.957443,-1473.978722,-9131.011042
1037.818575,-574.277424,937.986459,-8901.300072
1037.821080,-2775.674216,-899.701298,-9245.866526
1037.823585,-1339.980656,229.710970,-9016.155557
1037.826090,-1148.554848,803.988394,-8843.872330
1037.828595,-1454.836141,-1110.269686,-9188.438784
1037.831100,-210.568389,-172.283227,-9016.155557
1037.833605,-555.134843,-1703.689691,-8997.012976
1037.836110,-1512.263883,0.000000,-9016.155557
1037.838615,-2067.398726,248.853550,-8958.727814
1037.841120,-1607.976787,1167.697429,-8958.727814
1037.843625,-1761.117434,133.998066,-9054.440718
1037.846130,-842.273555,-1473.978722,-9092.725880
1037.848635,-1282.552914,-1933.400661,-9016.155557
1037.851140,-1167.697429,-114.855485,-9016.155557
1037.853645,-880.558717,267.996131,-9054.440718
1037.856150,-191.425808,-650.847747,-9073.583299
1037.858655,880.558717,3062.812928,-9054.440718
1037.861160,-248.853550,363.709035,-9169.296203
1037.863665,1665.404530,1761.117434,-9131.011042
1037.866170,-765.703232,-1531.406464,-9303.294269
1037.868675,0.000000,-459.421939,-8958.727814
1037.871180,-2622.533570,-593.420005,-9035.298138
1037.873685,-765.703232,2373.680019,-9054.440718
1037.876190,-478.564520,2067.398726,-9265.009107
1037.878695,880.558717,287.138712,-9188.438784
1037.881151,1071.984525,-995.414202,-9054.440718
1037.883607,-459.421939,-1205.982590,-9016.155557
1037.886062,248.853550,823.130974,-8939.585234
1037.888518,-612.562586,1531.406464,-9035.298138
1037.890974,-727.418070,1684.547110,-9399.007173
1037.893429,-287.138712,1550.549045,-9054.440718
1037.895885,-3101.098090,-459.421939,-9131.011042
1037.898341,-363.709035,-708.275490,-9226.723946
1037.900796,1225.125171,3503.092286,-9016.155557
1037.903252,-3771.088418,-114.855485,-9035.298138
1037.905708,1301.695494,229.710970,-8997.012976
1037.908163,-57.427742,114.855485,-9399.007173
1037.910619,823.130974,-363.709035,-9399.007173
1037.913074,689.132909,1263.410333,-8920.442653
1037.915530,-497.707101,-880.558717,-8939.585234
1037.917986,459.421939,2297.109696,-8901.300072
1037.920441,-1531.406464,363.709035,-9188.438784
1037.922897,976.271621,1148.554848,-9322.436850
1037.925353,-669.990328,727.418070,-9284.151688
1037.927808,325.423874,-133.998066,-9131.011042
1037.930264,-1033.699363,-363.709035,-8767.302006
1037.932720,-497.707101,-287.138712,-8901.300072
1037.935175,38.285162,1703.689691,-9111.868461
1037.937631,229.710970,1722.832272,-9341.579430
1037.940087,1493.121302,1378.265818,-9188.438784
1037.942542,-2239.681954,-1952.543242,-8997.012976
1037.944998,784.845813,-1856.830338,-8997.012976
1037.947453,-3120.240670,-2182.254211,-8824.729749
1037.949909,-1569.691626,-191.425808,-8671.589102
1037.952365,-3349.951640,1952.543242,-8997.012976
1037.954820,-2009.970984,880.558717,-9303.294269
1037.957276,689.132909,746.560651,-9035.298138
1037.959732,-1110.269686,-2354.537438,-9111.868461
1037.962187,287.138712,-1148.554848,-8958.727814
1037.964643,-1473.978722,-823.130974,-8920.442653
1037.967099,-1493.121302,650.847747,-8843.872330
1037.969554,-2392.822600,574.277424,-8920.442653
1037.972010,-1110.269686,-421.136778,-9150.153622
1037.974466,-784.845813,-823.130974,-9016.155557
1037.976921,-1627.119368,-937.986459,-9035.298138
1037.979415,-574.277424,-650.847747,-8843.872330
1037.981910,19.142581,38.285162,-8767.302006
1037.984404,-2067.398726,3196.810994,-9456.434915
1037.986898,-3694.518094,-2584.248408,-9284.151688
1037.989393,-19.142581,1473.978722,-9035.298138
1037.991887,-2909.672282,-4153.940034,-9169.296203
1037.994381,1263.410333,210.568389,-8671.589102
1037.996875,-2048.256146,-325.423874,-8882.157491
1037.999370,-1473.978722,-555.134843,-8920.442653
1038.001864,-2105.683888,-95.712904,-8997.012976
1038.004358,-1320.838075,-1990.828403,-9207.581365
1038.006852,-38.285162,1722.832272,-8824.729749
1038.009347,-2124.826469,-1052.841944,-8939.585234
1038.011841,-880.558717,-1014.556782,-8977.870395
1038.014335,-1933.400661,-784.845813,-9016.155557
1038.016830,-842.273555,-19.142581,-9111.868461
1038.019324,-1454.836141,976.271621,-9035.298138
1038.021818,-1071.984525,650.847747,-9035.298138
1038.024312,-1129.412267,-1167.697429,-8939.585234
1038.026807,-1761.117434,-2163.111630,-8901.300072
1038.029301,-1205.982590,-1282.552914,-9016.155557
1038.031795,-133.998066,746.560651,-9150.153622
1038.034290,-1359.123237,-133.998066,-9016.155557
1038.036784,1607.976787,3139.383251,-8997.012976
1038.039278,95.712904,535.992262,-9150.153622
1038.041772,2009.970984,555.134843,-9341.579430
1038.044267,306.281293,-1282.552914,-9131.011042
1038.046761,-1033.699363,-191.425808,-8882.157491
1038.049255,-2124.826469,899.701298,-8958.727814
1038.051749,-1684.547110,2048.256146,-9169.296203
1038.054244,114.855485,1818.545176,-9284.151688
1038.056738,803.988394,-172.283227,-9284.151688
1038.059232,1550.549045,-842.273555,-9169.296203
1038.061727,57.427742,-765.703232,-8997.012976
1038.064221,248.853550,1282.552914,-8882.157491
1038.066715,-976.271621,1033.699363,-8767.302006
1038.069209,172.283227,976.271621,-9131.011042
1038.071704,-1110.269686,555.134843,-9303.294269
1038.074198,-1895.115499,-1359.123237,-9169.296203
1038.076692,1091.127106,382.851616,-8939.585234
1038.079215,-210.568389,1454.836141,-8863.014910
1038.081738,-1646.261949,1205.982590,-8939.585234
1038.084262,-823.130974,1588.834206,-9379.864592
1038.086785,363.709035,669.990328,-9437.292334
1038.089308,325.423874,19.142581,-9303.294269
1038.091831,612.562586,823.130974,-8863.014910
1038.094354,-593.420005,133.998066,-8977.870395
1038.096877,459.421939,1722.832272,-9111.868461
1038.099400,0.000000,669.990328,-9207.581365
1038.101923,363.709035,-172.283227,-9150.153622
1038.104447,-497.707101,-114.855485,-9092.725880
1038.106970,-2258.824534,-593.420005,-8939.585234
1038.109493,-344.566454,1607.976787,-9073.583299
1038.112016,-19.142581,1512.263883,-9150.153622
1038.114539,1320.838075,1531.406464,-9245.866526
1038.117062,497.707101,19.142581,-9150.153622
1038.119585,-899.701298,-1320.838075,-9111.868461
1038.122108,153.140646,-2009.970984,-8997.012976
1038.124631,-2909.672282,-1033.699363,-8690.731683
1038.127155,-3866.801322,-459.421939,-8824.729749
1038.129678,-1837.687757,2411.965181,-9016.155557
1038.132201,-1875.972918,-976.271621,-9245.866526
1038.134724,842.273555,267.996131,-9169.296203
1038.137247,-765.703232,-1990.828403,-9016.155557
1038.139770,19.142581,-1091.127106,-8939.585234
1038.142293,-1454.836141,-765.703232,-8824.729749
1038.144816,-2584.248408,344.566454,-8958.727814
1038.147340,-1607.976787,880.558717,-8958.727814
1038.149863,-1493.121302,-899.701298,-9073.583299
1038.152386,-1244.267752,-1110.269686,-9016.155557
1038.154909,-1378.265818,-1799.402595,-8977.870395
1038.157432,-19.142581,-593.420005,-8843.872330
1038.159975,1263.410333,229.710970,-8863.014910
1038.162519,-2124.826469,574.277424,-8901.300072
1038.165062,-2967.100024,-2182.254211,-9111.868461
1038.167606,421.136778,1416.550979,-9092.725880
1038.170149,-3177.668413,-2488.535504,-9054.440718
1038.172693,-593.420005,555.134843,-8901.300072
1038.175236,-2660.818731,57.427742,-8786.444587
1038.177780,-1071.984525,0.000000,-8977.870395
1038.180323,-2852.244539,-287.138712,-9169.296203
1038.182867,-2258.824534,-2009.970984,-9150.153622
1038.185410,-229.710970,-267.996131,-8863.014910
1038.187954,-2163.111630,-1684.547110,-8882.157491
1038.190497,-57.427742,287.138712,-8882.157491
1038.193041,-2220.539373,210.568389,-9016.155557
1038.195584,-287.138712,995.414202,-9092.725880
1038.198127,-1014.556782,440.279358,-9092.725880
1038.200671,-1684.547110,-2335.394858,-9035.298138
1038.203214,-1320.838075,-727.418070,-8863.014910
1038.205758,-2297.109696,-478.564520,-8977.870395
1038.208301,708.275490,1186.840010,-9207.581365
1038.210845,-1627.119368,784.845813,-9169.296203
1038.213388,1914.258080,2143.969050,-9092.725880
1038.215932,631.705166,880.558717,-9226.723946
1038.218475,2048.256146,-19.142581,-9169.296203
1038.221019,-229.710970,-727.418070,-8958.727814
1038.223562,-1895.115499,-899.701298,-8882.157491
1038.226106,-1301.695494,1952.543242,-9035.298138
1038.228649,-1971.685822,1627.119368,-9207.581365
1038.231193,421.136778,1875.972918,-9341.579430
1038.233736,363.709035,-746.560651,-9188.438784
1038.236279,1971.685822,-382.851616,-9073.583299
1038.238823,325.423874,-363.709035,-9111.868461
1038.241366,-267.996131,650.847747,-8786.444587
1038.243910,-1550.549045,976.271621,-9073.583299
1038.246453,1607.976787,-1837.687757,-9054.440718
1038.248997,1186.840010,1320.838075,-9111.868461
1038.251540,-2890.529701,-114.855485,-9092.725880
1038.254084,497.707101,-153.140646,-8901.300072
1038.256627,1244.267752,1014.556782,-8805.587168
1038.259171,-114.855485,-421.136778,-9245.866526
1038.261730,823.130974,382.851616,-9111.868461
1038.264289,-803.988394,-708.275490,-9188.438784
1038.266849,995.414202,803.988394,-9092.725880
1038.269408,421.136778,1512.263883,-8958.727814
1038.271967,-478.564520,918.843878,-9169.296203
1038.274527,-497.707101,976.271621,-9265.009107
1038.277086,287.138712,-899.701298,-9131.011042
1038.279645,-191.425808,-727.418070,-9016.155557
1038.282205,-1301.695494,593.420005,-8920.442653
1038.284764,-669.990328,1895.115499,-9150.153622
1038.287324,-306.281293,2450.250342,-9226.723946
1038.289883,1186.840010,842.273555,-9226.723946
1038.292442,210.568389,-1627.119368,-8997.012976
1038.295002,248.853550,-306.281293,-9092.725880
1038.297561,-2201.396792,-2718.246474,-9054.440718
1038.300120,-2526.820666,-95.712904,-8709.874264
1038.302680,-3885.943902,153.140646,-8901.300072
1038.305239,-1703.689691,1799.402595,-9169.296203
1038.307798,-1646.261949,-440.279358,-9284.151688
1038.310358,918.843878,-344.566454,-8997.012976
1038.312917,172.283227,-1186.840010,-8977.870395
1038.315476,-842.273555,-1550.549045,-8977.870395
1038.318036,-1397.408398,-440.279358,-8920.442653
1038.320595,-2947.957443,497.707101,-8997.012976
1038.323155,-1665.404530,593.420005,-9111.868461
1038.325714,-1703.689691,-325.423874,-9188.438784
1038.328273,-1473.978722,-516.849682,-9131.011042
1038.330833,-555.134843,-842.273555,-8977.870395
1038.333392,-2928.814862,1435.693560,-9265.009107
1038.335951,-746.560651,-1052.841944,-9035.298138
1038.338511,-880.558717,1033.699363,-9073.583299
1038.341070,19.142581,-3617.947771,-8958.727814
1038.343629,1052.841944,727.418070,-9073.583299
1038.346189,-2699.103893,-1301.695494,-8786.444587
1038.348748,-1799.402595,1205.982590,-8767.302006
1038.351307,-3139.383251,-1148.554848,-9016.155557
1038.353867,459.421939,172.283227,-9188.438784
1038.356426,-918.843878,153.140646,-9054.440718
1038.358985,-1895.115499,-1837.687757,-8958.727814
1038.361545,-1397.408398,191.425808,-8748.159426
1038.364116,-1933.400661,-650.847747,-9111.868461
1038.366688,0.000000,1473.978722,-8882.157491
1038.369259,-995.414202,-306.281293,-8901.300072
1038.371830,172.283227,-555.134843,-9150.153622
1038.374402,-2545.963246,-2622.533570,-8997.012976
1038.376973,-1761.117434,-842.273555,-8958.727814
1038.379544,-1646.261949,1493.121302,-9073.583299
1038.382116,-708.275490,-19.142581,-9111.868461
1038.384687,1837.687757,3024.527766,-9073.583299
1038.387258,248.853550,-229.710970,-9341.579430
1038.389830,2679.961312,1320.838075,-9188.438784
1038.392401,-153.140646,-995.414202,-9284.151688
1038.394973,-1205.982590,76.570323,-8843.872330
1038.397544,-2679.961312,382.851616,-8882.157491
1038.400115,-1225.125171,1263.410333,-9092.725880
1038.402687,-287.138712,1837.687757,-9303.294269
1038.405258,344.566454,689.132909,-9284.151688
1038.407829,918.843878,-535.992262,-9245.866526
1038.410401,918.843878,-861.416136,-9035.298138
1038.412972,1167.697429,516.849682,-8748.159426
1038.415544,-899.701298,-95.712904,-8556.733618
1038.418115,191.425808,1301.695494,-9360.722011
1038.420686,-2699.103893,689.132909,-9571.290400
1038.423258,1990.828403,-38.285162,-9073.583299
1038.425829,-2890.529701,1780.260014,-8824.729749
1038.428400,-2411.965181,76.570323,-9207.581365
1038.430972,2239.681954,2718.246474,-8958.727814
1038.433543,-1205.982590,-1244.267752,-9571.290400
1038.436114,2526.820666,401.994197,-8958.727814
1038.438686,-1167.697429,363.709035,-8901.300072
1038.441257,631.705166,1244.267752,-9131.011042
1038.443829,153.140646,1684.547110,-9035.298138
1038.446400,287.138712,-574.277424,-9188.438784
1038.448971,-593.420005,574.277424,-9054.440718
1038.451543,-2143.969050,-1512.263883,-9188.438784
1038.454114,-229.710970,1607.976787,-9226.723946
1038.456685,210.568389,1761.117434,-9092.725880
1038.459257,1493.121302,1665.404530,-9111.868461
1038.461828,248.853550,-478.564520,-8958.727814
1038.464400,-478.564520,-823.130974,-9150.153622
1038.466979,0.000000,-1780.260014,-9150.153622
1038.469558,-2354.537438,-937.986459,-8958.727814
1038.472137,-3579.662610,-727.418070,-8748.159426
1038.474716,-2871.387120,1588.834206,-8939.585234
1038.477295,-1780.260014,-765.703232,-9188.438784
1038.479874,248.853550,746.560651,-9188.438784
1038.482454,-765.703232,-1646.261949,-9111.868461
1038.485033,516.849682,-842.273555,-8977.870395
1038.487612,-1244.267752,-1550.549045,-8882.157491
1038.490191,-1091.127106,267.996131,-8882.157491
1038.492770,-2373.680019,1033.699363,-8882.157491
1038.495349,-2756.531635,-631.705166,-9226.723946
1038.497928,-440.279358,-612.562586,-9035.298138
1038.500508,-1550.549045,-650.847747,-9169.296203
1038.503087,-1301.695494,-210.568389,-8939.585234
1038.505666,1454.836141,38.285162,-8824.729749
1038.508245,-3751.945837,1071.984525,-9035.298138
1038.510824,-5283.352301,-4938.785846,-9494.720077
1038.513403,2603.390989,2431.107762,-9073.583299
1038.515983,-3005.385186,-2718.246474,-8824.729749
1038.518562,-421.136778,1933.400661,-8556.733618
1038.521141,-4498.506488,-1359.123237,-9188.438784
1038.523720,-421.136778,-191.425808,-9092.725880
1038.526299,-1148.554848,-153.140646,-9054.440718
1038.528878,-1856.830338,-2392.822600,-8958.727814
1038.531457,-191.425808,363.709035,-8939.585234
1038.534037,-2067.398726,363.709035,-8863.014910
1038.536616,19.142581,1435.693560,-8863.014910
1038.539195,-1320.838075,57.427742,-9111.868461
1038.541774,-1033.699363,-2373.680019,-9092.725880
1038.544353,-1818.545176,-1856.830338,-9054.440718
1038.546932,-1722.832272,-191.425808,-9131.011042
1038.549512,172.283227,1799.402595,-9016.155557
1038.552091,-2048.256146,1129.412267,-9111.868461
1038.554670,1895.115499,1435.693560,-9169.296203
1038.557249,995.414202,459.421939,-9494.720077
1038.559828,2392.822600,95.712904,-9245.866526
1038.562407,57.427742,-440.279358,-8958.727814
1038.564986,-1435.693560,-248.853550,-8748.159426
1038.567566,-2431.107762,708.275490,-9054.440718
1038.570151,-2067.398726,1627.119368,-9245.866526
1038.572736,497.707101,1052.841944,-9341.579430
1038.575321,1148.554848,0.000000,-9265.009107
1038.577907,1588.834206,-421.136778,-9169.296203
1038.580492,535.992262,-861.416136,-8939.585234
1038.583077,-1186.840010,2335.394858,-9016.155557
1038.585662,-1397.408398,2297.109696,-8843.872330
1038.588248,-1761.117434,-3311.666478,-9705.288466
1038.590833,5379.065205,-133.998066,-8997.012976
1038.593418,-2794.816797,2565.105827,-8958.727814
1038.596004,-3349.951640,-1339.980656,-8920.442653
1038.598589,3426.521963,4230.510357,-8977.870395
1038.601174,-1282.552914,-3254.238736,-9494.720077
1038.603759,1971.685822,1684.547110,-9226.723946
1038.606345,-1397.408398,-765.703232,-9188.438784
1038.608930,1186.840010,535.992262,-9016.155557
1038.611515,-535.992262,1933.400661,-9073.583299
1038.614100,-57.427742,-957.129040,-9111.868461
1038.616686,-650.847747,612.562586,-8958.727814
1038.619271,-1627.119368,-650.847747,-9188.438784
1038.621856,-229.710970,1493.121302,-9360.722011
1038.624442,248.853550,1416.550979,-9322.436850
1038.627027,1799.402595,1741.974853,-9054.440718
1038.629612,-1052.841944,-1071.984525,-8824.729749
1038.632197,650.847747,-325.423874,-9054.440718
1038.634783,-2201.396792,-3062.812928,-9111.868461
1038.637368,-1454.836141,325.423874,-8843.872330
1038.639953,-4134.797453,-995.414202,-8843.872330
1038.642538,-2335.394858,1761.117434,-8939.585234
1038.645124,-1550.549045,-248.853550,-9092.725880
1038.647709,669.990328,-631.705166,-9073.583299
1038.650294,-19.142581,-1263.410333,-9092.725880
1038.652880,-708.275490,-1646.261949,-9035.298138
1038.655465,-1186.840010,-363.709035,-8805.587168
1038.658050,-2105.683888,191.425808,-8843.872330
1038.660635,-2239.681954,1225.125171,-8997.012976
1038.663221,-3005.385186,-708.275490,-9207.581365
1038.665806,-401.994197,-1646.261949,-8958.727814
1038.668391,-1473.978722,-1875.972918,-8977.870395
1038.670976,3005.385186,267.996131,-8575.876198
1038.673566,-4862.215523,-727.418070,-8939.585234
1038.676156,2354.537438,-2507.678085,-8901.300072
1038.678746,516.849682,2450.250342,-9016.155557
1038.681336,-4039.084549,-4287.938099,-9322.436850
1038.683926,-401.994197,3694.518094,-8748.159426
1038.686516,-6202.196179,-2048.256146,-9092.725880
1038.689106,765.703232,76.570323,-9035.298138
1038.691696,-1914.258080,-1225.125171,-8882.157491
1038.694286,-918.843878,-1397.408398,-9245.866526
1038.696876,-2163.111630,995.414202,-8939.585234
1038.699466,-765.703232,-535.992262,-8920.442653
1038.702056,-38.285162,1512.263883,-8824.729749
1038.704645,-1761.117434,-803.988394,-9016.155557
1038.707235,-1607.976787,-1933.400661,-9054.440718
1038.709825,-2641.676150,-1627.119368,-9111.868461
1038.712415,-631.705166,823.130974,-9092.725880
1038.715005,-229.710970,1301.695494,-9016.155557
1038.717595,-937.986459,1627.119368,-9054.440718
1038.720185,1167.697429,1244.267752,-9111.868461
1038.722775,1033.699363,325.423874,-9379.864592
1038.725365,1646.261949,-593.420005,-9303.294269
1038.727955,-669.990328,-19.142581,-8882.157491
1038.730545,-1244.267752,-38.285162,-8748.159426
1038.733135,-2067.398726,1148.554848,-8939.585234
1038.735725,-1646.261949,1110.269686,-9188.438784
1038.738315,535.992262,1129.412267,-9265.009107
1038.740904,1435.693560,325.423874,-9265.009107
1038.743494,1110.269686,-440.279358,-9150.153622
1038.746084,229.710970,478.564520,-8920.442653
1038.748674,-1780.260014,1205.982590,-8920.442653
1038.751264,-1952.543242,-1799.402595,-9016.155557
1038.753854,4498.506488,1397.408398,-9226.723946
1038.756444,-669.990328,-2277.967115,-9169.296203
1038.759034,2201.396792,1091.127106,-8403.592971
1038.761624,-2852.244539,593.420005,-9131.011042
1038.764214,-267.996131,-95.712904,-9399.007173
1038.766804,1225.125171,2048.256146,-9399.007173
1038.769394,267.996131,-995.414202,-9073.583299
1038.771984,1435.693560,2067.398726,-8939.585234
1038.774573,-1454.836141,-612.562586,-9245.866526
1038.777166,574.277424,1512.263883,-9169.296203
1038.779758,-1665.404530,-1110.269686,-8901.300072
1038.782350,-612.562586,574.277424,-8997.012976
1038.784943,-497.707101,1014.556782,-9284.151688
1038.787535,1091.127106,2009.970984,-9437.292334
1038.790127,1339.980656,1339.980656,-9188.438784
1038.792719,-440.279358,-1397.408398,-8958.727814
1038.795312,267.996131,191.425808,-8939.585234
1038.797904,-2545.963246,-3005.385186,-8920.442653
1038.800496,-1837.687757,-153.140646,-8843.872330
1038.803088,-4594.219392,-229.710970,-9035.298138
1038.805681,-1550.549045,1550.549045,-9092.725880
1038.808273,-1473.978722,-229.710970,-9131.011042
1038.810865,976.271621,-287.138712,-8958.727814
1038.813457,-133.998066,-1225.125171,-9073.583299
1038.816050,-497.707101,-1875.972918,-9054.440718
1038.818642,-1454.836141,-765.703232,-8824.729749
1038.821234,-3349.951640,57.427742,-8958.727814
1038.823826,-1761.117434,401.994197,-8882.157491
1038.826419,-2335.394858,-918.843878,-9169.296203
1038.829011,574.277424,-1435.693560,-9111.868461
1038.831603,114.855485,-401.994197,-8939.585234
1038.834195,-3675.375514,-38.285162,-8939.585234
1038.836788,-2258.824534,1914.258080,-9092.725880
1038.839380,57.427742,-1933.400661,-9724.431046
1038.841972,172.283227,-899.701298,-8901.300072
1038.844565,-1914.258080,-1741.974853,-8748.159426
1038.847157,-2297.109696,516.849682,-8671.589102
1038.849749,-2105.683888,38.285162,-8997.012976
1038.852341,-1282.552914,-1493.121302,-9073.583299
1038.854934,-1531.406464,-708.275490,-9035.298138
1038.857526,-1014.556782,-803.988394,-9131.011042
1038.860118,-555.134843,1110.269686,-9035.298138
1038.862710,-1129.412267,191.425808,-8997.012976
1038.865303,-363.709035,-95.712904,-8997.012976
1038.867895,-3005.385186,-2431.107762,-8939.585234
1038.870487,-1588.834206,-1665.404530,-8920.442653
1038.873079,-2086.541307,516.849682,-9111.868461
1038.875672,-172.283227,2411.965181,-9341.579430
1038.878264,-2009.970984,669.990328,-9265.009107
1038.880857,574.277424,708.275490,-9054.440718
1038.883451,2048.256146,957.129040,-9265.009107
1038.886045,1569.691626,-976.271621,-9341.579430
1038.888639,344.566454,76.570323,-9035.298138
1038.891233,-2335.394858,248.853550,-8767.302006
1038.893827,-2411.965181,1033.699363,-8882.157491
1038.896421,-1837.687757,1301.695494,-9131.011042
1038.899015,650.847747,1205.982590,-9245.866526
1038.901609,1493.121302,803.988394,-9207.581365
1038.904203,1435.693560,-727.418070,-9188.438784
1038.906797,1186.840010,153.140646,-9016.155557
1038.909391,-1033.699363,1052.841944,-8671.589102
1038.911985,-1952.543242,2488.535504,-9073.583299
1038.914579,-3005.385186,-1301.695494,-9686.145885
1038.917173,3464.807125,133.998066,-9092.725880
1038.919767,1435.693560,2143.969050,-8843.872330
1038.922361,-1091.127106,-363.709035,-8882.157491
1038.924955,727.418070,1569.691626,-9399.007173
1038.927549,306.281293,-114.855485,-9590.432981
1038.930143,2890.529701,2201.396792,-9035.298138
1038.932737,-823.130974,-114.855485,-9054.440718
1038.935331,153.140646,535.992262,-9150.153622
1038.937925,-1014.556782,267.996131,-8939.585234
1038.940519,-1990.828403,-19.142581,-8977.870395
1038.943113,-669.990328,803.988394,-9188.438784
1038.945707,287.138712,1091.127106,-9284.151688
1038.948301,2163.111630,1301.695494,-9245.866526
1038.950895,1263.410333,-38.285162,-8997.012976
1038.953489,-1225.125171,-937.986459,-8977.870395
1038.956083,229.710970,-1148.554848,-8863.014910
1038.958677,-2297.109696,-57.427742,-8633.303941
1038.961271,-4134.797453,-2086.541307,-8977.870395
1038.963865,-1971.685822,1071.984525,-9054.440718
1038.966459,-1761.117434,-191.425808,-9169.296203
1038.969053,-38.285162,1741.974853,-8958.727814
1038.971647,-708.275490,-2277.967115,-9035.298138
1038.974241,976.271621,-976.271621,-9016.155557
1038.976835,-1129.412267,-1875.972918,-8882.157491
1038.979429,-1493.121302,382.851616,-8786.444587
1038.982023,-3062.812928,631.705166,-8843.872330
1038.984617,-2622.533570,-1454.836141,-8997.012976
1038.987212,-803.988394,-1569.691626,-9169.296203
1038.989806,1244.267752,-1320.838075,-8997.012976
1038.992400,153.140646,363.709035,-8690.731683
1038.994994,-2737.389054,-1607.976787,-8843.872330
1038.997588,1799.402595,-344.566454,-9150.153622
1039.000182,-1895.115499,-918.843878,-9111.868461
1039.002777,-2009.970984,-1263.410333,-8939.585234
1039.005371,-1722.832272,650.847747,-8729.016845
1039.007965,-3024.527766,-1186.840010,-8977.870395
1039.010559,-1052.841944,229.710970,-9016.155557
1039.013153,-2163.111630,-1627.119368,-9131.011042
1039.015747,-306.281293,-593.420005,-9131.011042
1039.018342,-976.271621,708.275490,-8977.870395
1039.020936,-95.712904,363.709035,-9092.725880
1039.023530,-650.847747,-995.414202,-8882.157491
1039.026124,-2392.822600,-2239.681954,-8824.729749
1039.028718,-2833.101958,-1282.552914,-8920.442653
1039.031312,-1512.263883,650.847747,-9073.583299
1039.033906,669.990328,1378.265818,-9169.296203
1039.036501,1435.693560,2545.963246,-9092.725880
1039.039095,976.271621,19.142581,-9169.296203
1039.041689,1933.400661,765.703232,-9226.723946
1039.044283,516.849682,-803.988394,-9284.151688
1039.046877,-478.564520,172.283227,-8958.727814
1039.049471,-1665.404530,172.283227,-8901.300072
1039.052066,-2048.256146,1493.121302,-8958.727814
1039.054660,-1359.123237,1588.834206,-9169.296203
1039.057254,612.562586,19.142581,-9284.151688
1039.059848,1780.260014,-459.421939,-9245.866526
1039.062442,1244.267752,-133.998066,-9245.866526
1039.065036,1684.547110,-133.998066,-8614.161360
1039.067631,-574.277424,1359.123237,-8805.587168
1039.070225,-2986.242605,535.992262,-9207.581365
1039.072819,-689.132909,-325.423874,-9513.862658
1039.075413,-1263.410333,382.851616,-9418.149754
1039.078007,267.996131,746.560651,-8729.016845
1039.080601,363.709035,1110.269686,-9150.153622
1039.083195,57.427742,229.710970,-9533.005238
1039.085790,1971.685822,401.994197,-9188.438784
1039.088384,803.988394,229.710970,-9111.868461
1039.090978,-574.277424,631.705166,-8997.012976
1039.093572,-899.701298,459.421939,-8977.870395
1039.096166,-1837.687757,-210.568389,-8977.870395
1039.098760,-555.134843,1244.267752,-9131.011042
1039.101354,19.142581,1282.552914,-9456.434915
1039.103949,1378.265818,1205.982590,-9265.009107
1039.106543,1186.840010,-727.418070,-8977.870395
1039.109137,-76.570323,382.851616,-9035.298138
1039.111731,-1665.404530,-1990.828403,-8997.012976
1039.114325,-2622.533570,19.142581,-8652.446522
1039.116919,-4249.652938,-1339.980656,-9016.155557
1039.119513,-2411.965181,1091.127106,-9073.583299
1039.122108,-1569.691626,-57.427742,-9207.581365
1039.124702,325.423874,1052.841944,-9016.155557
1039.127296,-765.703232,-1378.265818,-9054.440718
1039.129890,689.132909,-1416.550979,-8958.727814
1039.132484,-1052.841944,-1110.269686,-8977.870395
1039.135078,-2220.539373,229.710970,-8882.157491
1039.137672,-2354.537438,1627.119368,-8939.585234
1039.140267,-2967.100024,-2201.396792,-8920.442653
1039.142861,574.277424,-2182.254211,-9303.294269
1039.145455,-57.427742,2603.390989,-9169.296203
1039.148049,-5627.918755,-1397.408398,-9073.583299
1039.150643,2105.683888,-861.416136,-8537.591037
1039.153237,2584.248408,1875.972918,-9169.296203
1039.155831,-3235.096155,-2565.105827,-9150.153622
1039.158426,-937.986459,38.285162,-8958.727814
1039.161020,-4096.512291,-1416.550979,-8824.729749
1039.163614,-842.273555,440.279358,-8939.585234
1039.166208,-1914.258080,57.427742,-8958.727814
1039.168802,-689.132909,-1665.404530,-9169.296203
1039.171396,-1129.412267,842.273555,-8977.870395
1039.173990,-1129.412267,-229.710970,-9169.296203
1039.176585,153.140646,287.138712,-8863.014910
1039.179179,-3426.521963,-2048.256146,-8824.729749
1039.181773,-1837.687757,-1397.408398,-8882.157491
1039.184367,-2813.959378,191.425808,-9073.583299
1039.186961,918.843878,1205.982590,-9169.296203
1039.189555,-363.709035,1933.400661,-9188.438784
1039.192150,382.851616,38.285162,-9265.009107
1039.194744,2488.535504,1186.840010,-9131.011042
1039.197338,344.566454,-1033.699363,-9207.581365
1039.199932,248.853550,57.427742,-9035.298138
1039.202527,-1856.830338,478.564520,-8863.014910
1039.205121,-2450.250342,880.558717,-8977.870395
1039.207715,-1875.972918,2143.969050,-9054.440718
1039.210309,-229.710970,650.847747,-9303.294269
1039.212904,1148.554848,-306.281293,-9399.007173
1039.215498,1741.974853,1129.412267,-9284.151688
1039.218092,727.418070,1301.695494,-8977.870395
1039.220686,-4173.082614,363.709035,-8939.585234
1039.223281,229.710970,-153.140646,-9054.440718
1039.225875,2086.541307,-976.271621,-9150.153622
1039.228469,1320.838075,210.568389,-8882.157491
1039.231063,-1799.402595,-287.138712,-8997.012976
1039.233658,-153.140646,-19.142581,-9016.155557
1039.236252,1703.689691,1359.123237,-9169.296203
1039.238846,1110.269686,746.560651,-9265.009107
1039.241440,689.132909,861.416136,-9073.583299
1039.244035,-1416.550979,-306.281293,-9111.868461
1039.246629,-1339.980656,153.140646,-8977.870395
1039.249223,-1186.840010,421.136778,-8939.585234
1039.251818,287.138712,1129.412267,-9188.438784
1039.254412,803.988394,1646.261949,-9360.722011
1039.257006,1473.978722,229.710970,-9226.723946
1039.259600,114.855485,-1014.556782,-8901.300072
1039.262195,1339.980656,114.855485,-8977.870395
1039.264789,-2947.957443,-2316.252277,-8767.302006
1039.267383,-2411.965181,-267.996131,-8575.876198
1039.269977,-4536.791650,-937.986459,-8997.012976
1039.272572,-2316.252277,-153.140646,-9303.294269
1039.275166,-516.849682,1129.412267,-9169.296203
1039.277760,-325.423874,-1244.267752,-8901.300072
1039.280354,746.560651,-229.710970,-8958.727814
1039.282949,-1186.840010,-2392.822600,-9035.298138
1039.285543,-746.560651,-593.420005,-8939.585234
1039.288137,-2890.529701,210.568389,-8805.587168
1039.290731,-2507.678085,1091.127106,-9073.583299
1039.293326,-3311.666478,229.710970,-9533.005238
1039.295920,-535.992262,-2392.822600,-9188.438784
1039.298514,1875.972918,-153.140646,-8824.729749
1039.301108,-3158.525832,-708.275490,-8939.585234
1039.303702,-669.990328,325.423874,-8939.585234
1039.306296,-574.277424,-76.570323,-8939.585234
1039.308890,-2603.390989,-2545.963246,-9188.438784
1039.311484,-363.709035,-440.279358,-8652.446522
1039.314078,-4058.227130,-1454.836141,-8882.157491
1039.316672,-421.136778,95.712904,-8997.012976
1039.319266,-1780.260014,76.570323,-9016.155557
1039.321860,210.568389,-650.847747,-9054.440718
1039.324454,-535.992262,689.132909,-9150.153622
1039.327048,-1033.699363,-1416.550979,-9035.298138
1039.329642,-1722.832272,-1167.697429,-8843.872330
1039.332236,-3349.951640,-1339.980656,-8882.157491
1039.334830,-746.560651,1569.691626,-8997.012976
1039.337424,-612.562586,708.275490,-9188.438784
1039.340018,1454.836141,1856.830338,-9207.581365
1039.342612,1071.984525,535.992262,-9341.579430
1039.345206,2201.396792,899.701298,-9207.581365
1039.347800,1110.269686,-306.281293,-9092.725880
1039.350395,-918.843878,-344.566454,-8863.014910
1039.352989,-1473.978722,555.134843,-8939.585234
1039.355583,-2201.396792,1071.984525,-9169.296203
1039.358177,-1186.840010,1665.404530,-9207.581365
1039.360771,-76.570323,727.418070,-9188.438784
1039.363365,1205.982590,-76.570323,-9245.866526
1039.365959,1607.976787,861.416136,-9341.579430
1039.368553,-38.285162,2488.535504,-8805.587168
1039.371147,-2220.539373,-382.851616,-8997.012976
1039.373741,114.855485,421.136778,-9054.440718
1039.376335,267.996131,-669.990328,-9188.438784
1039.378929,-842.273555,1875.972918,-9360.722011
1039.381523,-267.996131,1129.412267,-9035.298138
1039.384117,1110.269686,823.130974,-8997.012976
1039.386711,1052.841944,535.992262,-9322.436850
1039.389305,1435.693560,593.420005,-9111.868461
1039.391899,-612.562586,535.992262,-9188.438784
1039.394493,-1416.550979,440.279358,-8863.014910
1039.397087,-1263.410333,-57.427742,-8882.157491
1039.399680,-708.275490,497.707101,-9150.153622
1039.402273,325.423874,2239.681954,-9322.436850
1039.404865,1148.554848,669.990328,-9245.866526
1039.407458,727.418070,-842.273555,-9016.155557
1039.410051,1091.127106,133.998066,-8977.870395
1039.412644,-2105.683888,-2143.969050,-8939.585234
1039.415236,-2545.963246,-19.142581,-8633.303941
1039.417829,-4881.358104,-1588.834206,-8882.157491
1039.420422,-2756.531635,784.845813,-9092.725880
1039.423014,-1454.836141,-19.142581,-9265.009107
1039.425607,287.138712,746.560651,-8882.157491
1039.428200,-401.994197,-1110.269686,-9016.155557
1039.430793,-210.568389,-1895.115499,-9035.298138
1039.433385,-899.701298,-1225.125171,-8901.300072
1039.435978,-2029.113565,38.285162,-8748.159426
1039.438571,-2526.820666,497.707101,-8901.300072
1039.441163,-2411.965181,-1244.267752,-9035.298138
1039.443756,2009.970984,669.990328,-9111.868461
1039.446349,-1531.406464,-1799.402595,-8729.016845
1039.448941,401.994197,-555.134843,-8786.444587
1039.451534,-1703.689691,1607.976787,-8939.585234
1039.454127,-3101.098090,-1722.832272,-9188.438784
1039.456720,-631.705166,1263.410333,-9035.298138
1039.459312,-4058.227130,-2469.392923,-9150.153622
1039.461905,-937.986459,248.853550,-8805.587168
1039.464498,-2928.814862,-1473.978722,-8977.870395
1039.467090,76.570323,-1014.556782,-9054.440718
1039.469683,-325.423874,1244.267752,-8977.870395
1039.472276,-153.140646,-842.273555,-9073.583299
1039.474869,-937.986459,-1627.119368,-8997.012976
1039.477461,-2258.824534,-2354.537438,-8748.159426
1039.480054,-1914.258080,172.283227,-8824.729749
1039.482647,-2794.816797,1359.123237,-9092.725880
1039.485239,-861.416136,19.142581,-9265.009107
1039.487832,2852.244539,1837.687757,-9092.725880
1039.490425,1550.549045,-440.279358,-9379.864592
1039.493018,2450.250342,842.273555,-9245.866526
1039.495610,-76.570323,-248.853550,-8939.585234
1039.498203,-1416.550979,497.707101,-8786.444587
1039.500796,-1875.972918,114.855485,-8958.727814
1039.503387,-1741.974853,1627.119368,-9245.866526
1039.505979,-957.129040,689.132909,-9245.866526
1039.508570,1110.269686,631.705166,-9131.011042
1039.511162,937.986459,-401.994197,-9360.722011
1039.513753,2718.246474,267.996131,-8977.870395
1039.516345,-1473.978722,1607.976787,-9073.583299
1039.518936,-2622.533570,95.712904,-8863.014910
1039.521528,1875.972918,1607.976787,-9150.153622
1039.524119,746.560651,1665.404530,-9399.007173
1039.526711,-344.566454,-689.132909,-8977.870395
1039.529302,1378.265818,1933.400661,-8863.014910
1039.531894,-57.427742,-38.285162,-9360.722011
1039.534485,2622.533570,2105.683888,-9207.581365
1039.537077,-440.279358,-612.562586,-9111.868461
1039.539668,0.000000,401.994197,-8958.727814
1039.542260,-2660.818731,574.277424,-8977.870395
1039.544851,-1359.123237,459.421939,-9245.866526
1039.547443,459.421939,2182.254211,-9226.723946
1039.550034,937.986459,516.849682,-9207.581365
1039.552626,1033.699363,-133.998066,-9111.868461
1039.555217,-325.423874,-669.990328,-9016.155557
1039.557809,-248.853550,-1416.550979,-8977.870395
1039.560400,-3254.238736,-765.703232,-8690.731683
1039.562992,-4211.367776,-1493.121302,-8882.157491
1039.565583,-2660.818731,823.130974,-9073.583299
1039.568175,-1454.836141,-172.283227,-9303.294269
1039.570766,535.992262,535.992262,-9054.440718
1039.573358,-574.277424,-1397.408398,-8977.870395
1039.575949,210.568389,-1531.406464,-8939.585234
1039.578541,-899.701298,-1454.836141,-8843.872330
1039.581132,-1569.691626,-382.851616,-8748.159426
1039.583724,-2067.398726,-708.275490,-8709.874264
1039.586314,-2067.398726,-1359.123237,-9111.868461
1039.588905,631.705166,555.134843,-9226.723946
1039.591496,-1550.549045,-516.849682,-9150.153622
1039.594087,-1205.982590,-727.418070,-8805.587168
1039.596678,-95.712904,-593.420005,-8920.442653
1039.599269,-1531.406464,-306.281293,-8958.727814
1039.601860,-2622.533570,-1244.267752,-9016.155557
1039.604451,-2852.244539,-937.986459,-8786.444587
1039.607042,-1856.830338,-1071.984525,-8863.014910
1039.609633,-957.129040,401.994197,-9016.155557
1039.612224,-535.992262,-784.845813,-9035.298138
1039.614815,248.853550,440.279358,-9054.440718
1039.617406,-459.421939,-708.275490,-9169.296203
1039.619997,-2009.970984,-1454.836141,-8863.014910
1039.622588,-2909.672282,-880.558717,-8863.014910
1039.625179,-2392.822600,784.845813,-8863.014910
1039.627770,57.427742,1205.982590,-9111.868461
1039.630361,-478.564520,1454.836141,-9284.151688
1039.632952,1646.261949,440.279358,-9245.866526
1039.635543,2507.678085,631.705166,-9399.007173
1039.638134,1703.689691,19.142581,-9303.294269
1039.640725,191.425808,555.134843,-8729.016845
1039.643316,-2163.111630,516.849682,-8824.729749
1039.645906,-2603.390989,497.707101,-9131.011042
1039.648497,-765.703232,1569.691626,-9245.866526
1039.651088,-344.566454,114.855485,-9265.009107
1039.653679,2105.683888,-38.285162,-9073.583299
1039.656270,842.273555,555.134843,-9456.434915
1039.658861,1512.263883,-1493.121302,-8920.442653
1039.661452,880.558717,612.562586,-8690.731683
1039.664043,593.420005,-1091.127106,-8977.870395
1039.666634,1205.982590,1091.127106,-9131.011042
1039.669225,-2182.254211,-555.134843,-9265.009107
1039.671816,1282.552914,1091.127106,-9016.155557
1039.674407,1091.127106,1033.699363,-9131.011042
1039.676998,2086.541307,727.418070,-9207.581365
1039.679589,0.000000,1665.404530,-9016.155557
1039.682180,-1703.689691,-1282.552914,-9035.298138
1039.684771,-765.703232,574.277424,-8843.872330
1039.687362,-1665.404530,669.990328,-9150.153622
1039.689952,401.994197,2201.396792,-9265.009107
1039.692542,38.285162,497.707101,-9226.723946
1039.695132,1359.123237,-574.277424,-9131.011042
1039.697722,-19.142581,-267.996131,-9265.009107
1039.700312,-1914.258080,-2641.676150,-8958.727814
1039.702902,-1607.976787,708.275490,-8633.303941
1039.705492,-5589.633594,-2201.396792,-8882.157491
1039.708082,-2373.680019,1110.269686,-9035.298138
1039.710672,-2354.537438,-248.853550,-9169.296203
1039.713263,325.423874,421.136778,-9092.725880
1039.715853,-344.566454,-1435.693560,-9073.583299
1039.718443,-76.570323,-1684.547110,-8997.012976
1039.721033,-899.701298,-1033.699363,-8843.872330
1039.723623,-2163.111630,727.418070,-8882.157491
1039.726213,-1952.543242,-918.843878,-8671.589102
1039.728803,-1818.545176,-1588.834206,-9131.011042
1039.731393,574.277424,612.562586,-9150.153622
1039.733983,-1684.547110,-708.275490,-9111.868461
1039.736573,-172.283227,459.421939,-8729.016845
1039.739163,-2277.967115,-823.130974,-8920.442653
1039.741753,-1550.549045,-114.855485,-9016.155557
1039.744343,-2775.674216,-708.275490,-9092.725880
1039.746934,-2124.826469,-1110.269686,-8901.300072
1039.749524,-2622.533570,-114.855485,-8939.585234
1039.752114,-1225.125171,-172.283227,-9035.298138
1039.754704,-708.275490,574.277424,-9054.440718
1039.757294,-229.710970,-478.564520,-9111.868461
1039.759884,-1091.127106,-1856.830338,-9016.155557
1039.762474,-2239.681954,-1684.547110,-8939.585234
1039.765064,-2297.109696,153.140646,-8901.300072
1039.767654,-1665.404530,2048.256146,-9073.583299
1039.770244,-1684.547110,95.712904,-9150.153622
1039.772834,2335.394858,2239.681954,-9111.868461
1039.775424,1339.980656,-957.129040,-9284.151688
1039.778014,2775.674216,382.851616,-9399.007173
1039.780604,784.845813,-76.570323,-9035.298138
1039.783195,-1301.695494,535.992262,-8805.587168
1039.785785,-2182.254211,267.996131,-8843.872330
1039.788375,-1837.687757,1339.980656,-9111.868461
1039.790965,-1148.554848,899.701298,-9360.722011
1039.793553,76.570323,1186.840010,-9265.009107
1039.796142,1569.691626,-669.990328,-9188.438784
1039.798730,4287.938099,-1569.691626,-8939.585234
1039.801319,-1186.840010,2737.389054,-8709.874264
1039.803907,-3637.090352,-3043.670347,-9073.583299
1039.806496,5417.350366,3809.373579,-8882.157491
1039.809084,-2909.672282,-2163.111630,-9456.434915
1039.811673,344.566454,3043.670347,-9169.296203
1039.814261,-689.132909,-248.853550,-9379.864592
1039.816850,1014.556782,-38.285162,-9303.294269
1039.819438,2967.100024,2239.681954,-8997.012976
1039.822027,-1799.402595,-2105.683888,-9035.298138
1039.824615,38.285162,1837.687757,-8920.442653
1039.827204,-2009.970984,555.134843,-9092.725880
1039.829793,363.709035,2201.396792,-9245.866526
1039.832381,-229.710970,267.996131,-9265.009107
1039.834970,-325.423874,-1148.554848,-9131.011042
1039.837558,1952.543242,363.709035,-9111.868461
1039.840147,-1837.687757,-2316.252277,-8977.870395
1039.842735,-1167.697429,191.425808,-8748.159426
1039.845324,-5532.205851,-1646.261949,-8843.872330
1039.847912,-2450.250342,689.132909,-8997.012976
1039.850501,-1378.265818,38.285162,-9131.011042
1039.853089,-57.427742,325.423874,-8958.727814
1039.855678,-133.998066,-1627.119368,-9035.298138
1039.858266,-95.712904,-1837.687757,-9016.155557
1039.860855,-535.992262,-784.845813,-8824.729749
1039.863443,-2182.254211,-344.566454,-8671.589102
1039.866032,-3235.096155,133.998066,-9016.155557
1039.868620,-1818.545176,-1493.121302,-9092.725880
1039.871209,2086.541307,593.420005,-9131.011042
1039.873797,-3579.662610,-2450.250342,-9092.725880
1039.876386,-2220.539373,-2431.107762,-8786.444587
1039.878974,-153.140646,478.564520,-8805.587168
1039.881563,-2201.396792,-1167.697429,-8977.870395
1039.884151,-2220.539373,19.142581,-8843.872330
1039.886740,-3790.230998,-2871.387120,-9035.298138
1039.889328,-555.134843,1148.554848,-8939.585234
1039.891917,-1646.261949,-995.414202,-8997.012976
1039.894505,497.707101,459.421939,-9111.868461
1039.897091,-1186.840010,-1818.545176,-8977.870395
1039.899678,-1129.412267,-1895.115499,-8882.157491
1039.902265,-2220.539373,-957.129040,-8997.012976
1039.904852,-1799.402595,1339.980656,-8939.585234
1039.907439,-172.283227,803.988394,-9111.868461
1039.910026,-306.281293,1990.828403,-9150.153622
1039.912613,823.130974,306.281293,-9207.581365
1039.915200,2258.824534,784.845813,-9341.579430
1039.917787,918.843878,-306.281293,-9322.436850
1039.920375,440.279358,842.273555,-8920.442653
1039.922962,-1875.972918,574.277424,-8824.729749
1039.925549,-2431.107762,689.132909,-8997.012976
1039.928136,-1071.984525,1014.556782,-9188.438784
1039.930723,76.570323,172.283227,-9265.009107
1039.933310,1818.545176,-478.564520,-9035.298138
1039.935897,1895.115499,1493.121302,-9245.866526
1039.938484,-1282.552914,593.420005,-9035.298138
1039.941072,-344.566454,-555.134843,-8709.874264
1039.943659,689.132909,459.421939,-9016.155557
1039.946246,-842.273555,497.707101,-9571.290400
1039.948833,478.564520,2354.537438,-9226.723946
1039.951420,287.138712,210.568389,-9073.583299
1039.954007,995.414202,363.709035,-9169.296203
1039.956594,1435.693560,382.851616,-9207.581365
1039.959181,-803.988394,-95.712904,-8958.727814
1039.961769,-210.568389,1397.408398,-8824.729749
1039.964356,-1110.269686,1186.840010,-9169.296203
1039.966943,-229.710970,937.986459,-9341.579430
1039.969530,669.990328,401.994197,-9016.155557
1039.972117,-1014.556782,-784.845813,-9111.868461
1039.974704,1607.976787,172.283227,-9035.298138
1039.977291,-1588.834206,-1359.123237,-8863.014910
1039.979878,-1588.834206,-918.843878,-8729.016845
1039.982466,-4307.080680,-842.273555,-8920.442653
1039.985053,-2986.242605,-133.998066,-9131.011042
1039.987640,-1339.980656,765.703232,-9150.153622
1039.990227,-765.703232,-210.568389,-8977.870395
1039.992814,306.281293,-1110.269686,-9092.725880
1039.995401,-631.705166,-1971.685822,-9111.868461
1039.997988,-248.853550,-650.847747,-8920.442653
1040.000574,-2928.814862,1569.691626,-8997.012976
1040.003160,-3483.949706,1550.549045,-9169.296203
1040.005746,-3675.375514,-2143.969050,-9131.011042
1040.008333,2105.683888,-1052.841944,-9207.581365
1040.010919,2469.392923,-114.855485,-8595.018779
1040.013505,-3541.377448,-76.570323,-9035.298138
1040.016091,-2411.965181,899.701298,-8977.870395
1040.018677,-3177.668413,-1761.117434,-9016.155557
1040.021263,-516.849682,-784.845813,-8882.157491
1040.023849,-2431.107762,-306.281293,-8901.300072
1040.026435,-2220.539373,-1052.841944,-9092.725880
1040.029021,-1033.699363,1244.267752,-9092.725880
1040.031607,-612.562586,-1722.832272,-9016.155557
1040.034193,-880.558717,-803.988394,-8939.585234
1040.036779,-2373.680019,-1646.261949,-8977.870395
1040.039365,-1359.123237,612.562586,-8939.585234
1040.041951,-708.275490,2220.539373,-9150.153622
1040.044537,-1665.404530,765.703232,-9207.581365
1040.047123,1320.838075,1167.697429,-9073.583299
1040.049709,1282.552914,363.709035,-9245.866526
1040.052296,2143.969050,19.142581,-9322.436850
1040.054882,631.705166,478.564520,-9150.153622
1040.057468,-1282.552914,153.140646,-8977.870395
1040.060054,-1646.261949,995.414202,-8824.729749
1040.062640,-1493.121302,937.986459,-8939.585234
1040.065226,-689.132909,1091.127106,-9245.866526
1040.067812,325.423874,612.562586,-9303.294269
1040.070398,1416.550979,2277.967115,-9245.866526
1040.072984,-95.712904,-1052.841944,-9150.153622
1040.075570,-38.285162,38.285162,-8652.446522
1040.078156,765.703232,-229.710970,-8843.872330
1040.080742,-1339.980656,1607.976787,-9475.577496
1040.083328,-38.285162,1646.261949,-9379.864592
1040.085914,899.701298,267.996131,-9035.298138
1040.088500,382.851616,248.853550,-9188.438784
1040.091086,1397.408398,440.279358,-9169.296203
1040.093673,-727.418070,-133.998066,-9092.725880
1040.096259,19.142581,1129.412267,-8997.012976
1040.098845,-401.994197,1416.550979,-9073.583299
1040.101431,-38.285162,842.273555,-9303.294269
1040.104015,669.990328,574.277424,-9035.298138
1040.106599,-689.132909,-1282.552914,-8863.014910
1040.109184,1282.552914,287.138712,-9169.296203
1040.111768,-2373.680019,-1301.695494,-8920.442653
1040.114353,-1473.978722,-669.990328,-8767.302006
1040.116937,-3924.229064,-803.988394,-8958.727814
1040.119521,-2488.535504,57.427742,-9092.725880
1040.122106,-1435.693560,574.277424,-9054.440718
1040.124690,-765.703232,-248.853550,-8997.012976
1040.127274,19.142581,-937.986459,-9016.155557
1040.129859,-669.990328,-1703.689691,-9054.440718
1040.132443,-727.418070,-325.423874,-8939.585234
1040.135028,-2354.537438,-287.138712,-8805.587168
1040.137612,-1339.980656,1205.982590,-8729.016845
1040.140196,-4977.071008,-210.568389,-9494.720077
1040.142781,-344.566454,-3101.098090,-9111.868461
1040.145365,2545.963246,-57.427742,-8633.303941
1040.147949,-1110.269686,-191.425808,-8690.731683
1040.150534,-1607.976787,-1301.695494,-8901.300072
1040.153118,-2909.672282,0.000000,-8977.870395
1040.155703,-2928.814862,-1588.834206,-9131.011042
1040.158287,-382.851616,440.279358,-8767.302006
1040.160871,-2143.969050,-995.414202,-9169.296203
1040.163456,0.000000,1129.412267,-9054.440718
1040.166040,-1837.687757,-1627.119368,-9111.868461
1040.168624,-1129.412267,-1818.545176,-8901.300072
1040.171209,-2335.394858,-459.421939,-8977.870395
1040.173793,-1167.697429,1607.976787,-9131.011042
1040.176378,-267.996131,708.275490,-9131.011042
1040.178962,478.564520,1799.402595,-9111.868461
1040.181546,363.709035,-114.855485,-9226.723946
1040.184131,1761.117434,401.994197,-9169.296203
1040.186715,937.986459,497.707101,-9265.009107
1040.189299,-153.140646,459.421939,-9035.298138
1040.191884,-1320.838075,1091.127106,-9016.155557
1040.194468,-2105.683888,363.709035,-9016.155557
1040.197053,-650.847747,1091.127106,-8997.012976
1040.199637,-172.283227,-631.705166,-9073.583299
1040.202221,918.843878,631.705166,-9341.579430
1040.204806,3311.666478,535.992262,-9111.868461
1040.207389,-287.138712,267.996131,-8843.872330
1040.209972,-555.134843,861.416136,-8901.300072
1040.212555,-1110.269686,1378.265818,-9360.722011
1040.215138,440.279358,516.849682,-9456.434915
1040.217722,976.271621,1110.269686,-8977.870395
1040.220305,861.416136,593.420005,-8958.727814
1040.222888,287.138712,229.710970,-9226.723946
1040.225471,-1148.554848,-114.855485,-9092.725880
1040.228054,478.564520,1493.121302,-9073.583299
1040.230637,-708.275490,708.275490,-9073.583299
1040.233221,937.986459,1531.406464,-9245.866526
1040.235804,57.427742,-133.998066,-9016.155557
1040.238387,-535.992262,-995.414202,-8920.442653
1040.240970,382.851616,382.851616,-9131.011042
1040.243553,-1914.258080,-1320.838075,-9054.440718
1040.246136,-1473.978722,-1014.556782,-8690.731683
1040.248720,-3388.236802,-708.275490,-8997.012976
1040.251303,-2679.961312,306.281293,-9131.011042
1040.253886,-1761.117434,-287.138712,-9054.440718
1040.256469,-267.996131,287.138712,-8882.157491
1040.259052,-459.421939,-1627.119368,-8920.442653
1040.261635,-153.140646,-727.418070,-9054.440718
1040.264219,-1607.976787,-574.277424,-9073.583299
1040.266802,-1741.974853,-880.558717,-8767.302006
1040.269385,-401.994197,-401.994197,-8863.014910
1040.271968,-2507.678085,765.703232,-9092.725880
1040.274551,-2871.387120,-1722.832272,-9379.864592
1040.277134,612.562586,133.998066,-8958.727814
1040.279718,-976.271621,-803.988394,-8690.731683
1040.282301,-2354.537438,-1052.841944,-8843.872330
1040.284884,-2794.816797,-440.279358,-9073.583299
1040.287467,-2431.107762,-1646.261949,-9035.298138
1040.290050,-1071.984525,325.423874,-9035.298138
1040.292633,-1320.838075,-306.281293,-9035.298138
1040.295217,-459.421939,210.568389,-9073.583299
1040.297800,-1952.543242,-1703.689691,-9054.440718
1040.300383,-1205.982590,-1359.123237,-8824.729749
1040.302966,-1703.689691,1091.127106,-9016.155557
1040.305549,-612.562586,1091.127106,-9188.438784
1040.308133,-497.707101,1569.691626,-9169.296203
1040.310714,1167.697429,535.992262,-9054.440718
1040.313295,1263.410333,114.855485,-9131.011042
1040.315877,1359.123237,-57.427742,-9131.011042
1040.318458,1244.267752,727.418070,-9092.725880
1040.321039,-918.843878,267.996131,-8997.012976
1040.323620,-1033.699363,842.273555,-9016.155557
1040.326202,-1493.121302,880.558717,-9054.440718
1040.328783,-440.279358,1014.556782,-9169.296203
1040.331364,861.416136,-287.138712,-8920.442653
1040.333946,1895.115499,1282.552914,-9265.009107
1040.336527,-210.568389,535.992262,-9245.866526
1040.339108,-1244.267752,-248.853550,-8805.587168
1040.341690,-516.849682,1110.269686,-9341.579430
1040.344271,1416.550979,1588.834206,-9418.149754
1040.346852,842.273555,172.283227,-9245.866526
1040.349434,823.130974,459.421939,-9073.583299
1040.352015,516.849682,-267.996131,-8997.012976
1040.354596,555.134843,306.281293,-8901.300072
1040.357178,-267.996131,1052.841944,-9111.868461
1040.359759,-267.996131,1339.980656,-9073.583299
1040.362340,-19.142581,1473.978722,-9303.294269
1040.364922,153.140646,133.998066,-9150.153622
1040.367503,-746.560651,-1493.121302,-8958.727814
1040.370084,823.130974,421.136778,-8958.727814
1040.372666,-1990.828403,-1435.693560,-8997.012976
1040.375247,-1550.549045,440.279358,-8824.729749
1040.377828,-4287.938099,-1875.972918,-8958.727814
1040.380410,-2373.680019,-191.425808,-9169.296203
1040.382991,-1014.556782,-229.710970,-9111.868461
1040.385572,-440.279358,325.423874,-8843.872330
1040.388154,-669.990328,-1129.412267,-8901.300072
1040.390735,-574.277424,-440.279358,-9054.440718
1040.393316,-1531.406464,-1225.125171,-9188.438784
1040.395898,-497.707101,-957.129040,-8614.161360
1040.398479,-1129.412267,-344.566454,-8843.872330
1040.401060,-95.712904,535.992262,-8939.585234
1040.403642,-3330.809059,-1837.687757,-9399.007173
1040.406223,-363.709035,-803.988394,-8939.585234
1040.408804,-1148.554848,-765.703232,-8633.303941
1040.411386,-1339.980656,-497.707101,-8843.872330
1040.413966,-3254.238736,-363.709035,-9169.296203
1040.416545,-1895.115499,-1052.841944,-9092.725880
1040.419125,-937.986459,-57.427742,-8958.727814
1040.421705,-1627.119368,-957.129040,-8977.870395
1040.424285,95.712904,-114.855485,-9016.155557
1040.426865,-2182.254211,-1378.265818,-8997.012976
1040.429445,-1512.263883,-1071.984525,-8882.157491
1040.432025,-2029.113565,880.558717,-9111.868461
1040.434604,133.998066,1263.410333,-9073.583299
1040.437184,-1186.840010,1129.412267,-9131.011042
1040.439764,267.996131,-210.568389,-9169.296203
1040.442344,1722.832272,1148.554848,-9226.723946
1040.444924,344.566454,153.140646,-9245.866526
1040.447504,1014.556782,918.843878,-9073.583299
1040.450084,-1895.115499,-555.134843,-9092.725880
1040.452664,-229.710970,1052.841944,-8977.870395
1040.455243,-1914.258080,708.275490,-9035.298138
1040.457823,-689.132909,899.701298,-9303.294269
1040.460403,248.853550,1359.123237,-9169.296203
1040.462983,-976.271621,-2277.967115,-9341.579430
1040.465563,6738.188442,2737.389054,-8729.016845
1040.468143,-5053.641331,918.843878,-9265.009107
1040.470723,76.570323,0.000000,-8958.727814
1040.473302,1454.836141,2067.398726,-9303.294269
1040.475882,842.273555,-1071.984525,-9226.723946
1040.478462,3579.662610,3101.098090,-8786.444587
1040.481042,-2813.959378,-1607.976787,-9207.581365
1040.483622,1359.123237,2239.681954,-8939.585234
1040.486202,-1780.260014,114.855485,-9169.296203
1040.488782,1225.125171,1818.545176,-9265.009107
1040.491362,-210.568389,937.986459,-9150.153622
1040.493941,976.271621,-689.132909,-8977.870395
1040.496521,746.560651,1091.127106,-8882.157491
1040.499101,-2086.541307,-2029.113565,-9035.298138
1040.501681,-1033.699363,612.562586,-8843.872330
1040.504261,-3847.658741,-2526.820666,-8882.157491
1040.506841,-631.705166,555.134843,-8958.727814
1040.509421,-2679.961312,-440.279358,-9169.296203
1040.512000,-1205.982590,153.140646,-9111.868461
1040.514580,-631.705166,-76.570323,-8977.870395
1040.517159,-976.271621,-1435.693560,-9035.298138
1040.519738,-516.849682,0.000000,-9092.725880
1040.522317,-1263.410333,-1914.258080,-8652.446522
1040.524895,-535.992262,-516.849682,-8786.444587
1040.527474,-2833.101958,2029.113565,-9111.868461
1040.530053,-1531.406464,-3598.805190,-9226.723946
1040.532632,1627.119368,2622.533570,-8882.157491
1040.535211,-4804.787781,-4287.938099,-8958.727814
1040.537789,-593.420005,1033.699363,-8824.729749
1040.540368,-3943.371645,-287.138712,-9188.438784
1040.542947,-1493.121302,-1186.840010,-9016.155557
1040.545526,-1761.117434,382.851616,-8920.442653
1040.548104,-1722.832272,-1416.550979,-9226.723946
1040.550683,593.420005,1014.556782,-8843.872330
1040.553262,-2947.957443,-2909.672282,-9035.298138
1040.555841,-669.990328,-363.709035,-8843.872330
1040.558420,-2392.822600,708.275490,-9035.298138
1040.560998,746.560651,1320.838075,-9226.723946
1040.563577,-574.277424,1205.982590,-9016.155557
1040.566156,1588.834206,-382.851616,-9188.438784
1040.568735,765.703232,1167.697429,-9188.438784
1040.571314,153.140646,459.421939,-9265.009107
1040.573892,1148.554848,861.416136,-8977.870395
1040.576471,-1684.547110,-631.705166,-9035.298138
1040.579050,133.998066,861.416136,-9054.440718
1040.581629,-1895.115499,880.558717,-9073.583299
1040.584207,-267.996131,1646.261949,-9360.722011
1040.586786,516.849682,1761.117434,-9188.438784
1040.589365,-1531.406464,-344.566454,-9379.864592
1040.591944,1416.550979,2411.965181,-9092.725880
1040.594523,-478.564520,1397.408398,-8824.729749
1040.597101,-1875.972918,95.712904,-9590.432981
1040.599680,1761.117434,3043.670347,-9341.579430
1040.602259,-153.140646,-1359.123237,-9245.866526
1040.604838,1818.545176,1320.838075,-8901.300072
1040.607417,-1416.550979,-421.136778,-9016.155557
1040.609995,727.418070,918.843878,-8977.870395
1040.612574,-267.996131,1205.982590,-9188.438784
1040.615153,746.560651,708.275490,-9207.581365
1040.617732,593.420005,995.414202,-9111.868461
1040.620309,-1359.123237,-1703.689691,-9073.583299
1040.622886,1033.699363,669.990328,-8997.012976
1040.625463,-2316.252277,-1607.976787,-8977.870395
1040.628041,-1493.121302,497.707101,-8824.729749
1040.630618,-4881.358104,-1837.687757,-9073.583299
1040.633195,-2316.252277,-1014.556782,-9188.438784
1040.635772,-401.994197,172.283227,-9073.583299
1040.638349,-957.129040,-19.142581,-8977.870395
1040.640927,-363.709035,-650.847747,-8882.157491
1040.643504,-1091.127106,-976.271621,-9131.011042
1040.646081,-1167.697429,-497.707101,-9054.440718
1040.648658,-1818.545176,76.570323,-8824.729749
1040.651236,-3790.230998,191.425808,-9016.155557
1040.653813,-1282.552914,-133.998066,-9284.151688
1040.656390,-1129.412267,784.845813,-9284.151688
1040.658967,-1684.547110,-2163.111630,-8652.446522
1040.661544,-1512.263883,0.000000,-8729.016845
1040.664122,-3426.521963,-1933.400661,-8977.870395
1040.666699,-1014.556782,1071.984525,-9073.583299
1040.669276,-2986.242605,-1033.699363,-9073.583299
1040.671853,-861.416136,-689.132909,-8939.585234
1040.674431,-516.849682,-803.988394,-9035.298138
1040.677008,-1684.547110,-1225.125171,-9016.155557
1040.679585,-1780.260014,-669.990328,-8786.444587
1040.682162,-1952.543242,401.994197,-9092.725880
1040.684739,-57.427742,2163.111630,-9265.009107
1040.687317,-1244.267752,153.140646,-9131.011042
1040.689894,1761.117434,784.845813,-9207.581365
1040.692471,727.418070,918.843878,-9169.296203
1040.695048,861.416136,459.421939,-9092.725880
1040.697626,995.414202,1244.267752,-8939.585234
1040.700203,-784.845813,-516.849682,-9092.725880
1040.702780,-746.560651,784.845813,-9092.725880
1040.705357,-1703.689691,172.283227,-9226.723946
1040.707934,-19.142581,2392.822600,-9226.723946
1040.710512,995.414202,-784.845813,-8863.014910
1040.713089,2029.113565,1397.408398,-9150.153622
1040.715666,-1818.545176,1914.258080,-9265.009107
1040.718243,-2163.111630,1205.982590,-9207.581365
1040.720821,1684.547110,727.418070,-9111.868461
1040.723396,612.562586,-535.992262,-9475.577496
1040.725972,957.129040,1761.117434,-9226.723946
1040.728548,-784.845813,-172.283227,-9092.725880
1040.731124,-382.851616,401.994197,-9073.583299
1040.733700,0.000000,746.560651,-9169.296203
1040.736276,1205.982590,1359.123237,-9265.009107
1040.738852,153.140646,1263.410333,-9188.438784
1040.741428,191.425808,440.279358,-9111.868461
1040.744004,-1071.984525,-1837.687757,-8939.585234
1040.746579,1320.838075,784.845813,-8882.157491
1040.749155,-2450.250342,-784.845813,-8786.444587
1040.751731,-2182.254211,-248.853550,-8843.872330
1040.754307,-3809.373579,-440.279358,-9035.298138
1040.756883,-1895.115499,-1186.840010,-9169.296203
1040.759459,-516.849682,191.425808,-9111.868461
1040.762035,-803.988394,-306.281293,-8939.585234
1040.764611,-210.568389,-95.712904,-8863.014910
1040.767187,-1282.552914,-1320.838075,-9073.583299
1040.769762,-1493.121302,-937.986459,-8958.727814
1040.772338,-2718.246474,-1167.697429,-8901.300072
1040.774914,-459.421939,478.564520,-8958.727814
1040.777490,229.710970,497.707101,-9188.438784
1040.780066,-2967.100024,-995.414202,-9150.153622
1040.782642,-2143.969050,-1588.834206,-8997.012976
1040.785218,-1454.836141,-344.566454,-8748.159426
1040.787794,-2124.826469,-478.564520,-8997.012976
1040.790370,-1569.691626,-114.855485,-8997.012976
1040.792945,-2775.674216,-689.132909,-9111.868461
1040.795521,-708.275490,-478.564520,-8920.442653
1040.798097,-746.560651,-1531.406464,-9073.583299
1040.800673,-1205.982590,-1301.695494,-8901.300072
1040.803249,-1952.543242,-421.136778,-8863.014910
1040.805825,-1550.549045,1588.834206,-9111.868461
1040.808401,-344.566454,-19.142581,-9322.436850
1040.810977,1205.982590,1550.549045,-9073.583299
1040.813553,708.275490,-650.847747,-9226.723946
1040.816128,1301.695494,1339.980656,-9188.438784
1040.818704,325.423874,803.988394,-9131.011042
1040.821280,133.998066,976.271621,-8901.300072
1040.823856,-1110.269686,-306.281293,-9073.583299
1040.826431,-1110.269686,-76.570323,-9207.581365
1040.829006,-689.132909,1990.828403,-9207.581365
1040.831581,344.566454,-172.283227,-8997.012976
1040.834156,631.705166,1837.687757,-9054.440718
1040.836732,-1473.978722,-574.277424,-9360.722011
1040.839307,2239.681954,1282.552914,-8671.589102
1040.841882,-1684.547110,535.992262,-9150.153622
1040.844457,401.994197,1225.125171,-9494.720077
1040.847032,1244.267752,2411.965181,-9399.007173
1040.849607,-574.277424,-1493.121302,-9188.438784
1040.852182,1607.976787,1531.406464,-8690.731683
1040.854757,-861.416136,-344.566454,-9054.440718
1040.857332,918.843878,2775.674216,-9322.436850
1040.859907,-516.849682,555.134843,-9265.009107
1040.862482,1473.978722,1148.554848,-9111.868461
1040.865058,-1091.127106,-1761.117434,-9035.298138
1040.867633,937.986459,172.283227,-8958.727814
1040.870208,-2469.392923,-1301.695494,-8958.727814
1040.872783,-1895.115499,478.564520,-8767.302006
1040.875358,-4077.369710,-1741.974853,-8997.012976
1040.877933,-1627.119368,-535.992262,-9092.725880
1040.880508,-937.986459,-306.281293,-9265.009107
1040.883083,-1301.695494,-95.712904,-8997.012976
1040.885658,-478.564520,-133.998066,-8920.442653
1040.888233,-1359.123237,-1397.408398,-8977.870395
1040.890809,-1129.412267,172.283227,-9092.725880
1040.893384,-3445.664544,823.130974,-9054.440718
1040.895959,-1627.119368,-2411.965181,-8939.585234
1040.898534,-325.423874,1052.841944,-9131.011042
1040.901109,-1167.697429,-2373.680019,-9303.294269
1040.903684,746.560651,1473.978722,-8518.448456
1040.906259,-4900.500685,-2775.674216,-8920.442653
1040.908832,-669.990328,555.134843,-8767.302006
1040.911406,-3637.090352,-574.277424,-9054.440718
1040.913980,-976.271621,-401.994197,-9131.011042
1040.916554,-1454.836141,133.998066,-8901.300072
1040.919128,-1550.549045,-2756.531635,-9073.583299
1040.921702,-1186.840010,-287.138712,-8748.159426
1040.924276,-2679.961312,-784.845813,-8920.442653
1040.926850,440.279358,2871.387120,-9188.438784
1040.929424,-1435.693560,-708.275490,-9245.866526
1040.931998,2679.961312,1780.260014,-9035.298138
1040.934572,-210.568389,-497.707101,-9265.009107
1040.937146,1895.115499,1263.410333,-9188.438784
1040.939720,-38.285162,516.849682,-9054.440718
1040.942294,306.281293,1014.556782,-8939.585234
1040.944868,-669.990328,784.845813,-8997.012976
1040.947442,-1569.691626,-459.421939,-9284.151688
1040.950016,440.279358,937.986459,-9111.868461
1040.952590,-1110.269686,784.845813,-9360.722011
1040.955164,2775.674216,995.414202,-8901.300072
1040.957737,191.425808,-823.130974,-8882.157491
1040.960311,229.710970,-976.271621,-8786.444587
1040.962885,1627.119368,1473.978722,-8977.870395
1040.965459,-19.142581,-267.996131,-9399.007173
1040.968033,1741.974853,2277.967115,-9188.438784
1040.970607,-325.423874,-612.562586,-8997.012976
1040.973181,899.701298,229.710970,-8939.585234
1040.975755,-1110.269686,574.277424,-9188.438784
1040.978329,1397.408398,2182.254211,-9265.009107
1040.980903,0.000000,842.273555,-9035.298138
1040.983477,-535.992262,-1244.267752,-9054.440718
1040.986051,-861.416136,-689.132909,-9016.155557
1040.988625,-95.712904,-899.701298,-9035.298138
1040.991199,-2335.394858,-478.564520,-8863.014910
1040.993773,-2201.396792,-765.703232,-8690.731683
1040.996347,-2354.537438,-38.285162,-8863.014910
1040.998921,-2756.531635,-593.420005,-9322.436850
1041.001495,-1454.836141,-172.283227,-9092.725880
1041.004069,-421.136778,-19.142581,-8920.442653
1041.006643,-459.421939,-918.843878,-8863.014910
1041.009217,-1129.412267,-1186.840010,-8843.872330
1041.011790,-2833.101958,-421.136778,-9188.438784
1041.014363,-1722.832272,-287.138712,-8767.302006
1041.016936,210.568389,344.566454,-9016.155557
1041.019509,-2009.970984,-459.421939,-9399.007173
1041.022082,-3062.812928,-1799.402595,-8939.585234
1041.024655,-2335.394858,689.132909,-8614.161360
1041.027228,-2833.101958,-1378.265818,-8920.442653
1041.029801,-1301.695494,172.283227,-8901.300072
1041.032374,-2794.816797,-727.418070,-9265.009107
1041.034947,-1320.838075,-57.427742,-9054.440718
1041.037520,-1550.549045,-995.414202,-9035.298138
1041.040093,-1493.121302,-1933.400661,-8863.014910
1041.042666,-1435.693560,708.275490,-8786.444587
1041.045239,-823.130974,784.845813,-9092.725880
1041.047812,421.136778,1167.697429,-9207.581365
1041.050385,784.845813,1244.267752,-9169.296203
1041.052958,650.847747,-708.275490,-9265.009107
1041.055531,1091.127106,1091.127106,-9265.009107
1041.058104,306.281293,784.845813,-9188.438784
1041.060677,95.712904,1493.121302,-8997.012976
1041.063250,-1454.836141,-114.855485,-9073.583299
1041.065823,-669.990328,95.712904,-9226.723946
1041.068396,-746.560651,1301.695494,-9303.294269
1041.070969,-421.136778,1569.691626,-9322.436850
1041.073542,-2086.541307,459.421939,-9226.723946
1041.076115,5130.211654,1205.982590,-8882.157491
1041.078688,2182.254211,2297.109696,-8595.018779
1041.081261,-3311.666478,-1339.980656,-9437.292334
1041.083834,1895.115499,4268.795518,-9265.009107
1041.086407,-631.705166,-2124.826469,-9399.007173
1041.088980,3464.807125,1684.547110,-8863.014910
1041.091553,-2163.111630,-325.423874,-9054.440718
1041.094126,210.568389,1933.400661,-9303.294269
1041.096699,-153.140646,1282.552914,-9303.294269
1041.099272,669.990328,-401.994197,-9169.296203
1041.101845,229.710970,-133.998066,-8882.157491
1041.104418,-1646.261949,-880.558717,-9150.153622
1041.106991,-593.420005,-535.992262,-8977.870395
1041.109565,-2316.252277,-229.710970,-8824.729749
1041.112138,-1837.687757,-1952.543242,-8805.587168
1041.114710,-2277.967115,114.855485,-8997.012976
1041.117282,-2067.398726,-1301.695494,-9207.581365
1041.119854,-765.703232,267.996131,-9073.583299
1041.122426,-957.129040,-459.421939,-8939.585234
1041.124999,-95.712904,-995.414202,-8939.585234
1041.127571,-1339.980656,-1665.404530,-8920.442653
1041.130143,-727.418070,-899.701298,-8805.587168
1041.132715,-3120.240670,937.986459,-9073.583299
1041.135287,-1588.834206,-803.988394,-9303.294269
1041.137860,976.271621,1014.556782,-9054.440718
1041.140432,-3771.088418,-3349.951640,-8958.727814
1041.143004,-861.416136,1110.269686,-8556.733618
1041.145576,-3924.229064,-1148.554848,-8997.012976
1041.148148,-1359.123237,401.994197,-9150.153622
1041.150721,-2354.537438,-153.140646,-9073.583299
1041.153293,-842.273555,-880.558717,-9054.440718
1041.155865,-1473.978722,-574.277424,-8824.729749
1041.158437,-1895.115499,-1665.404530,-8997.012976
1041.161010,-918.843878,1512.263883,-8939.585234
1041.163582,-153.140646,1741.974853,-9073.583299
1041.166154,-727.418070,574.277424,-9341.579430
1041.168726,1454.836141,516.849682,-9111.868461
1041.171298,1205.982590,-440.279358,-9131.011042
1041.173871,957.129040,957.129040,-9131.011042
1041.176443,784.845813,1952.543242,-8939.585234
1041.179015,-1397.408398,133.998066,-9111.868461
1041.181587,-555.134843,535.992262,-9054.440718
1041.184159,-1148.554848,-880.558717,-9188.438784
1041.186732,-248.853550,2813.959378,-9399.007173
1041.189304,-1837.687757,1014.556782,-9341.579430
1041.191876,2469.392923,-153.140646,-8920.442653
1041.194448,1952.543242,-248.853550,-8595.018779
1041.197020,382.851616,-401.994197,-9016.155557
1041.199593,325.423874,957.129040,-9360.722011
1041.202165,344.566454,1033.699363,-9494.720077
1041.204737,823.130974,0.000000,-9111.868461
1041.207309,784.845813,1397.408398,-8882.157491
1041.209882,-880.558717,497.707101,-9111.868461
1041.212454,1263.410333,1454.836141,-9303.294269
1041.215026,459.421939,995.414202,-9150.153622
1041.217597,516.849682,-1148.554848,-8997.012976
1041.220168,-1454.836141,-133.998066,-9016.155557
1041.222739,-612.562586,-1244.267752,-9035.298138
1041.225310,-2105.683888,95.712904,-8786.444587
1041.227881,-2182.254211,-1588.834206,-8748.159426
1041.230452,-2431.107762,287.138712,-8997.012976
1041.233023,-2890.529701,-1684.547110,-9169.296203
1041.235594,-267.996131,363.709035,-9073.583299
1041.238165,-784.845813,-765.703232,-9035.298138
1041.240736,-57.427742,-478.564520,-8901.300072
1041.243307,-1416.550979,-2258.824534,-8843.872330
1041.245878,-1607.976787,-1971.685822,-8958.727814
1041.248449,1416.550979,1263.410333,-8748.159426
1041.251019,-5647.061336,-172.283227,-9284.151688
1041.253590,-5340.780043,-5187.639397,-9494.720077
1041.256161,1244.267752,2143.969050,-8729.016845
1041.258732,-3388.236802,-2986.242605,-8882.157491
1041.261303,-708.275490,1091.127106,-8709.874264
1041.263874,-4766.502619,-1607.976787,-9092.725880
1041.266445,-516.849682,191.425808,-9073.583299
1041.269016,-1301.695494,267.996131,-9054.440718
1041.271587,-2105.683888,-3235.096155,-8939.585234
1041.274158,-1588.834206,497.707101,-8920.442653
1041.276729,-2067.398726,363.709035,-9016.155557
1041.279300,1301.695494,2852.244539,-9131.011042
1041.281871,-1378.265818,172.283227,-9322.436850
1041.284442,2067.398726,325.423874,-9265.009107
1041.287013,669.990328,-267.996131,-9131.011042
1041.289584,1665.404530,1129.412267,-9188.438784
1041.292155,842.273555,2220.539373,-8939.585234
1041.294726,-1837.687757,-267.996131,-9035.298138
1041.297297,-555.134843,631.705166,-9169.296203
1041.299868,-1359.123237,38.285162,-9303.294269
1041.302439,1244.267752,248.853550,-8958.727814
1041.305010,1569.691626,803.988394,-9169.296203
1041.307581,-689.132909,535.992262,-9092.725880
1041.310152,0.000000,918.843878,-9207.581365
1041.312723,95.712904,957.129040,-9245.866526
1041.315294,497.707101,287.138712,-9456.434915
1041.317865,1320.838075,2526.820666,-9379.864592
1041.320435,-267.996131,-689.132909,-9111.868461
1041.323005,1646.261949,765.703232,-8824.729749
1041.325574,-765.703232,650.847747,-9207.581365
1041.328144,899.701298,2354.537438,-9399.007173
1041.330714,-191.425808,995.414202,-9054.440718
1041.333284,-689.132909,-1493.121302,-9035.298138
1041.335854,-57.427742,344.566454,-8997.012976
1041.338424,-2009.970984,-2029.113565,-9054.440718
1041.340994,-1799.402595,918.843878,-8709.874264
1041.343564,-4019.941968,-2622.533570,-8901.300072
1041.346134,-555.134843,1091.127106,-9054.440718
1041.348704,-3426.521963,-1914.258080,-9111.868461
1041.351274,-478.564520,-248.853550,-9016.155557
1041.353844,-1148.554848,19.142581,-8901.300072
1041.356414,-612.562586,-842.273555,-9073.583299
1041.358984,-535.992262,-1895.115499,-8729.016845
1041.361554,-593.420005,-1761.117434,-8901.300072
1041.364124,-1933.400661,1627.119368,-9035.298138
1041.366694,-3751.945837,-765.703232,-9437.292334
1041.369264,-2182.254211,-1071.984525,-9226.723946
1041.371833,-1780.260014,153.140646,-8729.016845
1041.374403,-2239.681954,-1875.972918,-8786.444587
1041.376973,-1895.115499,1205.982590,-8977.870395
1041.379543,-3177.668413,-1148.554848,-9188.438784
1041.382113,-535.992262,440.279358,-8997.012976
1041.384683,-2507.678085,-3349.951640,-9035.298138
1041.387253,38.285162,-306.281293,-8882.157491
1041.389823,-2526.820666,612.562586,-8939.585234
1041.392393,248.853550,1990.828403,-9188.438784
1041.394963,-861.416136,-19.142581,-9131.011042
1041.397533,2450.250342,1397.408398,-9245.866526
1041.400103,401.994197,-957.129040,-9207.581365
1041.402673,1627.119368,1416.550979,-9073.583299
1041.405243,-172.283227,1167.697429,-9150.153622
1041.407813,-976.271621,995.414202,-9035.298138
1041.410383,-899.701298,95.712904,-9188.438784
1041.412953,-823.130974,0.000000,-9169.296203
1041.415523,-306.281293,803.988394,-9226.723946
1041.418093,1225.125171,-1722.832272,-8920.442653
1041.420662,2967.100024,3732.803256,-9188.438784
1041.423232,-5072.783912,-1014.556782,-9131.011042
1041.425801,2565.105827,1378.265818,-9207.581365
1041.428370,823.130974,708.275490,-9322.436850
1041.430939,1473.978722,-421.136778,-9303.294269
1041.433509,976.271621,3005.385186,-9016.155557
1041.436078,-1569.691626,-1416.550979,-9092.725880
1041.438647,2105.683888,2411.965181,-9035.298138
1041.441216,-516.849682,-382.851616,-9322.436850
1041.443786,1550.549045,1856.830338,-9265.009107
1041.446355,-1569.691626,-995.414202,-8824.729749
1041.448924,191.425808,363.709035,-9073.583299
1041.451493,-2641.676150,-1703.689691,-8977.870395
1041.454062,-1493.121302,421.136778,-8805.587168
1041.456632,-3694.518094,-2450.250342,-8882.157491
1041.459201,-1416.550979,382.851616,-8977.870395
1041.461770,-2163.111630,-1129.412267,-9245.866526
1041.464339,-957.129040,363.709035,-9016.155557
1041.466909,-555.134843,-114.855485,-8920.442653
1041.469478,-842.273555,-1569.691626,-8901.300072
1041.472047,-1473.978722,248.853550,-9150.153622
1041.474616,-3464.807125,-631.705166,-8901.300072
1041.477186,-344.566454,191.425808,-9035.298138
1041.479755,-1378.265818,-1167.697429,-9265.009107
1041.482324,172.283227,-1531.406464,-8882.157491
1041.484893,-1722.832272,-593.420005,-8690.731683
1041.487463,-3560.520029,-1780.260014,-8767.302006
1041.490032,-1148.554848,1148.554848,-9035.298138
1041.492601,-3005.385186,-765.703232,-9284.151688
1041.495170,-267.996131,19.142581,-9035.298138
1041.497739,-3139.383251,-2890.529701,-8824.729749
1041.500309,-612.562586,-957.129040,-9035.298138
1041.502878,-1952.543242,478.564520,-8977.870395
1041.505447,650.847747,2277.967115,-9092.725880
1041.508016,-1205.982590,708.275490,-9226.723946
1041.510586,1435.693560,210.568389,-9207.581365
1041.513155,1397.408398,-421.136778,-9188.438784
1041.515724,1052.841944,937.986459,-9188.438784
1041.518293,325.423874,1952.543242,-9035.298138
1041.520863,-1588.834206,555.134843,-9054.440718
1041.523432,-382.851616,535.992262,-9111.868461
1041.525978,-727.418070,-229.710970,-9226.723946
1041.528524,1091.127106,-267.996131,-8977.870395
1041.531070,1320.838075,1569.691626,-9188.438784
1041.533616,-1665.404530,1301.695494,-9111.868461
1041.536162,-1454.836141,995.414202,-9073.583299
1041.538708,1052.841944,382.851616,-9073.583299
1041.541254,918.843878,-1205.982590,-9494.720077
1041.543800,2029.113565,1741.974853,-9207.581365
1041.546346,-957.129040,669.990328,-9054.440718
1041.548892,401.994197,918.843878,-9035.298138
1041.551438,918.843878,1320.838075,-9207.581365
1041.553984,1339.980656,287.138712,-9226.723946
1041.556530,-133.998066,593.420005,-9035.298138
1041.559077,-1627.119368,-1320.838075,-8939.585234
1041.561623,-363.709035,593.420005,-9054.440718
1041.564169,-2756.531635,-1052.841944,-8863.014910
1041.566715,-1512.263883,-842.273555,-8748.159426
1041.569261,-3560.520029,-593.420005,-8920.442653
1041.571807,-1818.545176,-1684.547110,-9150.153622
1041.574353,-363.709035,650.847747,-9092.725880
1041.576899,-1320.838075,-899.701298,-8958.727814
1041.579445,-153.140646,-76.570323,-8901.300072
1041.581991,-2067.398726,-516.849682,-9150.153622
1041.584537,-2277.967115,1320.838075,-9092.725880
1041.587083,-3177.668413,-1148.554848,-9073.583299
1041.589629,-306.281293,1914.258080,-9150.153622
1041.592175,-3215.953574,-3598.805190,-9188.438784
1041.594721,-95.712904,765.703232,-8748.159426
1041.597267,-3483.949706,-1895.115499,-8690.731683
1041.599813,-1148.554848,765.703232,-9054.440718
1041.602359,-2354.537438,516.849682,-9188.438784
1041.604906,-1952.543242,-1397.408398,-9207.581365
1041.607452,-1741.974853,-1761.117434,-8843.872330
1041.609998,-1435.693560,-1473.978722,-8997.012976
1041.612544,-1550.549045,421.136778,-8997.012976
1041.615090,-535.992262,1761.117434,-9150.153622
1041.617636,0.000000,0.000000,-9169.296203
1041.620182,2507.678085,1148.554848,-9150.153622
1041.622728,574.277424,-918.843878,-9322.436850
1041.625274,1569.691626,1282.552914,-9073.583299
1041.627823,-631.705166,918.843878,-9035.298138
1041.630372,-210.568389,1990.828403,-8997.012976
1041.632921,-1320.838075,-229.710970,-9073.583299
1041.635470,-535.992262,114.855485,-9207.581365
1041.638019,-38.285162,-76.570323,-9379.864592
1041.640567,1435.693560,689.132909,-9035.298138
1041.643116,880.558717,-153.140646,-8824.729749
1041.645665,-325.423874,-497.707101,-8709.874264
1041.648214,-842.273555,1282.552914,-9456.434915
1041.650763,459.421939,574.277424,-9533.005238
1041.653312,1684.547110,1167.697429,-9360.722011
1041.655861,210.568389,325.423874,-9073.583299
1041.658410,344.566454,1320.838075,-9111.868461
1041.660959,612.562586,478.564520,-9169.296203
1041.663508,1320.838075,1531.406464,-9207.581365
1041.666057,114.855485,-497.707101,-8977.870395
1041.668605,-1684.547110,-842.273555,-8939.585234
1041.671154,-401.994197,-95.712904,-9054.440718
1041.673703,-2373.680019,-631.705166,-8805.587168
1041.676252,-1588.834206,-1837.687757,-8748.159426
1041.678801,-2431.107762,38.285162,-8939.585234
1041.681350,-2622.533570,-1473.978722,-9303.294269
1041.683899,-535.992262,363.709035,-9092.725880
1041.686448,-1110.269686,-727.418070,-8939.585234
1041.688997,76.570323,-38.285162,-8863.014910
1041.691546,-1263.410333,-2813.959378,-8882.157491
1041.694095,-267.996131,-1205.982590,-8843.872330
1041.696644,-153.140646,1205.982590,-8843.872330
1041.699192,-3560.520029,-1052.841944,-9456.434915
1041.701741,497.707101,-1512.263883,-8958.727814
1041.704290,-2067.398726,-1512.263883,-8786.444587
1041.706839,-1971.685822,-210.568389,-8805.587168
1041.709388,-2833.101958,-363.709035,-8958.727814
1041.711937,-2029.113565,-1301.695494,-9131.011042
1041.714486,-555.134843,-191.425808,-9035.298138
1041.717035,-3101.098090,-2086.541307,-8882.157491
1041.719584,-1110.269686,-1033.699363,-9035.298138
1041.722133,-1971.685822,1033.699363,-9016.155557
1041.724682,784.845813,1665.404530,-9188.438784
1041.727231,-631.705166,669.990328,-9169.296203
1041.729782,1646.261949,497.707101,-9169.296203
1041.732334,880.558717,-267.996131,-9226.723946
1041.734885,440.279358,382.851616,-9092.725880
1041.737437,995.414202,2105.683888,-9035.298138
1041.739988,-2029.113565,631.705166,-9016.155557
1041.742540,-593.420005,-76.570323,-9073.583299
1041.745092,-440.279358,-708.275490,-9054.440718
1041.747643,1225.125171,-842.273555,-9016.155557
1041.750195,1071.984525,2163.111630,-9169.296203
1041.752746,-440.279358,-765.703232,-8690.731683
1041.755298,-669.990328,2029.113565,-8977.870395
1041.757849,-708.275490,38.285162,-9341.579430
1041.760401,1741.974853,535.992262,-9418.149754
1041.762953,133.998066,459.421939,-9360.722011
1041.765504,1244.267752,2124.826469,-9111.868461
1041.768056,-191.425808,899.701298,-8958.727814
1041.770607,1244.267752,1244.267752,-9303.294269
1041.773159,516.849682,306.281293,-9092.725880
1041.775711,-1186.840010,-1875.972918,-8977.870395
1041.778262,267.996131,823.130974,-8901.300072
1041.780814,-2545.963246,-1205.982590,-8901.300072
1041.783365,-1741.974853,516.849682,-8748.159426
1041.785917,-3732.803256,-2890.529701,-8882.157491
1041.788468,-746.560651,-114.855485,-8977.870395
1041.791020,-2986.242605,229.710970,-9054.440718
1041.793572,-957.129040,-631.705166,-9016.155557
1041.796123,-248.853550,478.564520,-8786.444587
1041.798675,-1263.410333,-3043.670347,-8805.587168
1041.801226,-708.275490,-1741.974853,-8920.442653
1041.803778,1320.838075,-153.140646,-8786.444587
1041.806329,-4192.225195,2316.252277,-9131.011042
1041.808881,-5091.926493,-3579.662610,-9686.145885
1041.811433,-248.853550,-210.568389,-8901.300072
1041.813984,-3062.812928,-1339.980656,-8690.731683
1041.816536,-248.853550,535.992262,-8690.731683
1041.819087,-3751.945837,-363.709035,-9169.296203
1041.821639,-2373.680019,-1205.982590,-9379.864592
1041.824191,-1493.121302,-344.566454,-8767.302006
1041.826742,-1684.547110,-3081.955509,-8920.442653
1041.829294,-1435.693560,1569.691626,-9035.298138
1041.831847,-1531.406464,1110.269686,-9303.294269
1041.834401,1320.838075,1263.410333,-9054.440718
1041.836954,1186.840010,401.994197,-9131.011042
1041.839508,1033.699363,-114.855485,-9322.436850
1041.842061,650.847747,574.277424,-9169.296203
1041.844615,248.853550,1339.980656,-9111.868461
1041.847168,-325.423874,1550.549045,-8977.870395
1041.849722,-1052.841944,19.142581,-9016.155557
1041.852275,-727.418070,38.285162,-9207.581365
1041.854829,-746.560651,1014.556782,-9284.151688
1041.857382,1052.841944,267.996131,-9226.723946
1041.859936,631.705166,1167.697429,-8863.014910
1041.862489,-1665.404530,57.427742,-9054.440718
1041.865043,1263.410333,1971.685822,-9150.153622
1041.867596,-306.281293,-1339.980656,-9475.577496
1041.870149,1416.550979,976.271621,-9188.438784
1041.872703,555.134843,1110.269686,-8882.157491
1041.875256,1071.984525,976.271621,-9188.438784
1041.877810,421.136778,1914.258080,-9131.011042
1041.880363,114.855485,-497.707101,-9226.723946
1041.882917,-918.843878,-306.281293,-9111.868461
1041.885470,-976.271621,-823.130974,-9073.583299
1041.888024,-1359.123237,-114.855485,-8997.012976
1041.890577,-2603.390989,-191.425808,-8786.444587
1041.893131,-3483.949706,-2450.250342,-8920.442653
1041.895684,-1493.121302,-172.283227,-9016.155557
1041.898238,-2067.398726,-1071.984525,-9169.296203
1041.900791,344.566454,306.281293,-8939.585234
1041.903345,-1167.697429,-114.855485,-8958.727814
1041.905898,-937.986459,57.427742,-9035.298138
1041.908452,-38.285162,-574.277424,-8748.159426
1041.911005,-3809.373579,-153.140646,-9188.438784
1041.913559,-2679.961312,-1512.263883,-9245.866526
1041.916112,1359.123237,535.992262,-9265.009107
1041.918666,-2239.681954,-1186.840010,-8786.444587
1041.921219,-2354.537438,-497.707101,-8690.731683
1041.923773,-3235.096155,-1454.836141,-8824.729749
1041.926326,-937.986459,-19.142581,-9322.436850
1041.928880,-38.285162,-114.855485,-8939.585234
1041.931433,-2871.387120,-2354.537438,-8843.872330
1041.933988,-1703.689691,-727.418070,-8997.012976
1041.936544,-1818.545176,650.847747,-9111.868461
1041.939099,1435.693560,2545.963246,-9226.723946
1041.941655,-1167.697429,57.427742,-9188.438784
1041.944210,2545.963246,995.414202,-9111.868461
1041.946766,1225.125171,229.710970,-9226.723946
1041.949321,612.562586,708.275490,-9131.011042
1041.951877,746.560651,1914.258080,-8939.585234
1041.954432,-1588.834206,95.712904,-9073.583299
1041.956988,-574.277424,535.992262,-9131.011042
1041.959543,-612.562586,-612.562586,-8977.870395
1041.962098,918.843878,-1110.269686,-9111.868461
1041.964654,1761.117434,1761.117434,-9073.583299
1041.967209,-1895.115499,-440.279358,-8939.585234
1041.969765,1263.410333,1052.841944,-8614.161360
1041.972320,19.142581,-325.423874,-9207.581365
1041.974876,1588.834206,229.710970,-9379.864592
1041.977431,631.705166,1435.693560,-9188.438784
1041.979987,382.851616,803.988394,-9016.155557
1041.982542,1473.978722,2163.111630,-9035.298138
1041.985098,746.560651,-669.990328,-9188.438784
1041.987653,669.990328,-363.709035,-9092.725880
1041.990209,-2909.672282,-1129.412267,-8977.870395
1041.992764,0.000000,191.425808,-8997.012976
1041.995319,-3024.527766,-267.996131,-8901.300072
1041.997875,-1435.693560,-880.558717,-8767.302006
1042.000430,-3790.230998,-1569.691626,-8824.729749
1042.002986,-2239.681954,-1627.119368,-9207.581365
1042.005541,287.138712,1435.693560,-9092.725880
1042.008097,-1512.263883,-516.849682,-9035.298138
1042.010652,76.570323,516.849682,-8901.300072
1042.013208,-1167.697429,-2699.103893,-8633.303941
1042.015743,-2794.816797,-784.845813,-9111.868461
1042.018279,-2603.390989,823.130974,-9341.579430
1042.020815,-708.275490,631.705166,-9437.292334
1042.023351,-1665.404530,-1129.412267,-9035.298138
1042.025887,-2124.826469,-1129.412267,-8614.161360
1042.028422,-2316.252277,-2182.254211,-8595.018779
1042.030958,-2469.392923,765.703232,-9111.868461
1042.033494,-1914.258080,-38.285162,-9226.723946
1042.036030,-2009.970984,-1665.404530,-8882.157491
1042.038565,-1282.552914,-2067.398726,-8786.444587
1042.041101,-2067.398726,-287.138712,-9073.583299
1042.043637,-19.142581,1263.410333,-9207.581365
1042.046173,861.416136,1359.123237,-9188.438784
1042.048709,1225.125171,746.560651,-9111.868461
1042.051244,1110.269686,-191.425808,-9265.009107
1042.053780,689.132909,497.707101,-9169.296203
1042.056316,172.283227,1148.554848,-9073.583299
1042.058852,-650.847747,1741.974853,-8958.727814
1042.061387,-497.707101,-401.994197,-8920.442653
1042.063923,-937.986459,1359.123237,-9341.579430
1042.066459,-574.277424,1531.406464,-9245.866526
1042.068995,-172.283227,-325.423874,-9265.009107
1042.071531,401.994197,2909.672282,-9016.155557
1042.074066,-2086.541307,-95.712904,-8843.872330
1042.076602,937.986459,1225.125171,-9207.581365
1042.079138,57.427742,-593.420005,-9399.007173
1042.081674,1435.693560,382.851616,-9131.011042
1042.084209,880.558717,2507.678085,-9111.868461
1042.086745,440.279358,574.277424,-9169.296203
1042.089281,1359.123237,2009.970984,-9092.725880
1042.091817,-650.847747,-1320.838075,-9035.298138
1042.094353,-976.271621,-535.992262,-8920.442653
1042.096888,-1225.125171,-669.990328,-9092.725880
1042.099424,-1665.404530,440.279358,-8824.729749
1042.101960,-2316.252277,-1473.978722,-8805.587168
1042.104496,-2507.678085,-497.707101,-8882.157491
1042.107031,-2813.959378,-1780.260014,-9131.011042
1042.109567,-478.564520,0.000000,-9111.868461
1042.112103,-363.709035,-95.712904,-9073.583299
1042.114639,-535.992262,-555.134843,-8805.587168
1042.117179,-2124.826469,-401.994197,-9016.155557
1042.119719,-3617.947771,-1493.121302,-8901.300072
1042.122259,-76.570323,-1971.685822,-8920.442653
1042.124799,1091.127106,382.851616,-9111.868461
1042.127339,-2392.822600,-976.271621,-8997.012976
1042.129879,-2163.111630,-421.136778,-8595.018779
1042.132420,-3560.520029,-1550.549045,-8709.874264
1042.134960,-937.986459,-95.712904,-8901.300072
1042.137500,-363.709035,727.418070,-9188.438784
1042.140040,-3215.953574,-2584.248408,-9035.298138
1042.142580,-1569.691626,-363.709035,-8786.444587
1042.145120,-2009.970984,-287.138712,-9111.868461
1042.147660,1588.834206,3024.527766,-9245.866526
1042.150200,-669.990328,-229.710970,-9188.438784
1042.152741,2565.105827,1320.838075,-9092.725880
1042.155281,612.562586,-210.568389,-9226.723946
1042.157821,918.843878,650.847747,-9169.296203
1042.160361,306.281293,1856.830338,-9073.583299
1042.162901,-1875.972918,344.566454,-9092.725880
1042.165441,133.998066,593.420005,-9016.155557
1042.167981,-1895.115499,574.277424,-9245.866526
1042.170521,-555.134843,19.142581,-9265.009107
1042.173061,2526.820666,1646.261949,-8977.870395
1042.175602,-1416.550979,-803.988394,-9054.440718
1042.178142,861.416136,153.140646,-8958.727814
1042.180682,650.847747,38.285162,-9226.723946
1042.183222,765.703232,-708.275490,-9418.149754
1042.185762,1550.549045,2622.533570,-9131.011042
1042.188302,306.281293,899.701298,-9092.725880
1042.190842,1071.984525,2335.394858,-9131.011042
1042.193382,229.710970,-382.851616,-9169.296203
1042.195923,-478.564520,-1282.552914,-9016.155557
1042.198463,-1205.982590,210.568389,-8958.727814
1042.201003,-2297.109696,-1091.127106,-9054.440718
1042.203543,-2009.970984,976.271621,-8824.729749
1042.206083,-3311.666478,-2679.961312,-8824.729749
1042.208623,-1167.697429,95.712904,-8863.014910
1042.211163,-2909.672282,-1569.691626,-9245.866526
1042.213703,-382.851616,555.134843,-9054.440718
1042.216243,-957.129040,-153.140646,-8997.012976
1042.218788,-1052.841944,459.421939,-9111.868461
1042.221332,-2813.959378,-1818.545176,-8882.157491
1042.223876,-516.849682,-957.129040,-8901.300072
1042.226420,-153.140646,-1339.980656,-9054.440718
1042.228964,-689.132909,650.847747,-9265.009107
1042.231508,-2660.818731,-918.843878,-8863.014910
1042.234052,-3254.238736,-861.416136,-8709.874264
1042.236596,-2775.674216,-612.562586,-8920.442653
1042.239140,-1588.834206,57.427742,-9169.296203
1042.241684,-2373.680019,-1129.412267,-9073.583299
1042.244229,-1741.974853,-1665.404530,-8958.727814
1042.246773,-2009.970984,-918.843878,-8939.585234
1042.249317,0.000000,1244.267752,-9169.296203
1042.251861,612.562586,1512.263883,-9284.151688
1042.254405,1359.123237,1301.695494,-9169.296203
1042.256949,957.129040,229.710970,-9226.723946
1042.259493,1110.269686,478.564520,-9169.296203
1042.262037,114.855485,765.703232,-9150.153622
1042.264581,-287.138712,1225.125171,-8977.870395
1042.267125,-842.273555,1014.556782,-9150.153622
1042.269669,-1359.123237,210.568389,-9169.296203
1042.272214,708.275490,2124.826469,-9169.296203
1042.274758,-1301.695494,-516.849682,-9207.581365
1042.277302,918.843878,2431.107762,-8882.157491
1042.279846,-1780.260014,459.421939,-8920.442653
1042.282390,1397.408398,1052.841944,-9207.581365
1042.284934,-459.421939,-38.285162,-9418.149754
1042.287478,1588.834206,612.562586,-9207.581365
1042.290022,842.273555,2431.107762,-9150.153622
1042.292566,-153.140646,306.281293,-9169.296203
1042.295110,1627.119368,2297.109696,-9131.011042
1042.297655,-1684.547110,-2239.681954,-9035.298138
1042.300199,-38.285162,114.855485,-8863.014910
1042.302743,-2622.533570,-1435.693560,-9131.011042
1042.305287,-1684.547110,784.845813,-8997.012976
1042.307831,-2794.816797,-1971.685822,-8843.872330
1042.310375,-1531.406464,-631.705166,-8958.727814
1042.312919,-2105.683888,-1856.830338,-9092.725880
1042.315463,-229.710970,574.277424,-9054.440718
1042.318007,-1071.984525,-440.279358,-9035.298138
1042.320555,-516.849682,-612.562586,-8939.585234
1042.323103,-344.566454,-1225.125171,-8843.872330
1042.325650,-3426.521963,-440.279358,-9016.155557
1042.328198,-3158.525832,-1110.269686,-9303.294269
1042.330745,-746.560651,-823.130974,-9150.153622
1042.333293,-1627.119368,-918.843878,-8863.014910
1042.335841,-2105.683888,-957.129040,-8556.733618
1042.338388,-2660.818731,-19.142581,-8920.442653
1042.340936,-3043.670347,-1339.980656,-9207.581365
1042.343483,-1033.699363,-937.986459,-9054.440718
1042.346031,-2163.111630,-1837.687757,-8843.872330
1042.348579,-995.414202,114.855485,-8958.727814
1042.351126,-114.855485,1933.400661,-9188.438784
1042.353674,363.709035,0.000000,-9284.151688
1042.356221,2086.541307,1493.121302,-9150.153622
1042.358769,669.990328,-267.996131,-9303.294269
1042.361317,1301.695494,1301.695494,-9188.438784
1042.363864,-114.855485,1014.556782,-9111.868461
1042.366412,-133.998066,1493.121302,-9073.583299
1042.368960,-1205.982590,267.996131,-9092.725880
1042.371507,-1091.127106,133.998066,-9322.436850
1042.374055,-478.564520,440.279358,-9131.011042
1042.376602,2239.681954,478.564520,-8997.012976
1042.379150,19.142581,287.138712,-8997.012976
1042.381698,114.855485,593.420005,-8767.302006
1042.384245,669.990328,-344.566454,-9188.438784
1042.386793,976.271621,229.710970,-9360.722011
1042.389340,1091.127106,1493.121302,-9226.723946
1042.391888,842.273555,1875.972918,-9035.298138
1042.394436,1033.699363,1875.972918,-9150.153622
1042.396983,267.996131,-287.138712,-9150.153622
1042.399531,-631.705166,-918.843878,-8958.727814
1042.402078,-1378.265818,-746.560651,-8977.870395
1042.404626,-2009.970984,-650.847747,-8958.727814
1042.407174,-2258.824534,440.279358,-8824.729749
1042.409721,-3790.230998,-2277.967115,-8901.300072
1042.412269,-1416.550979,-172.283227,-9016.155557
1042.414817,-2143.969050,-1512.263883,-9169.296203
1042.417364,95.712904,631.705166,-8997.012976
1042.419912,-1339.980656,-631.705166,-8863.014910
1042.422442,-497.707101,-114.855485,-9054.440718
1042.424972,-172.283227,650.847747,-8939.585234
1042.427502,-8250.452325,-344.566454,-9456.434915
1042.430033,-19.142581,-937.986459,-9303.294269
1042.432563,1091.127106,784.845813,-8863.014910
1042.435093,-2373.680019,-2756.531635,-8786.444587
1042.437623,-3388.236802,593.420005,-8767.302006
1042.440154,-2967.100024,-2909.672282,-9035.298138
1042.442684,555.134843,1263.410333,-8920.442653
1042.445214,-2775.674216,-2067.398726,-8805.587168
1042.447744,-1186.840010,-210.568389,-8882.157491
1042.450275,-2775.674216,1091.127106,-9111.868461
1042.452805,1971.685822,1703.689691,-9226.723946
1042.455335,-287.138712,535.992262,-9322.436850
1042.457865,2029.113565,1091.127106,-9284.151688
1042.460396,1052.841944,-153.140646,-9188.438784
1042.462926,287.138712,765.703232,-9131.011042
1042.465456,401.994197,1914.258080,-8939.585234
1042.467986,-1780.260014,248.853550,-9016.155557
1042.470516,-803.988394,421.136778,-9169.296203
1042.473047,-1933.400661,593.420005,-9360.722011
1042.475577,2335.394858,478.564520,-8977.870395
1042.478107,363.709035,325.423874,-8939.585234
1042.480637,-1378.265818,0.000000,-9111.868461
1042.483168,1895.115499,1684.547110,-9131.011042
1042.485698,-880.558717,-650.847747,-9475.577496
1042.488228,2526.820666,1397.408398,-9207.581365
1042.490758,210.568389,880.558717,-9016.155557
1042.493289,1780.260014,1722.832272,-9169.296203
1042.495819,287.138712,1052.841944,-9092.725880
1042.498349,535.992262,-497.707101,-9073.583299
1042.500879,-2699.103893,-1301.695494,-9131.011042
1042.503410,-2182.254211,-1761.117434,-9073.583299
1042.505940,-2067.398726,899.701298,-8863.014910
1042.508470,-3483.949706,-2469.392923,-8824.729749
1042.511000,-1378.265818,631.705166,-8824.729749
1042.513530,-3215.953574,-2833.101958,-9188.438784
1042.516061,708.275490,708.275490,-8958.727814
1042.518591,-1091.127106,-1244.267752,-8958.727814
1042.521121,-172.283227,-727.418070,-8882.157491
1042.523657,-1282.552914,-2909.672282,-8824.729749
1042.526193,-267.996131,325.423874,-8882.157491
1042.528729,-3943.371645,114.855485,-9437.292334
1042.531265,-497.707101,-1205.982590,-9054.440718
1042.533801,-1761.117434,-995.414202,-8843.872330
1042.536337,-2048.256146,-1225.125171,-8575.876198
1042.538873,-2086.541307,459.421939,-8843.872330
1042.541409,-3369.094221,-1818.545176,-9265.009107
1042.543945,-2182.254211,-880.558717,-9092.725880
1042.546481,-2775.674216,-1205.982590,-8863.014910
1042.549017,-516.849682,823.130974,-9035.298138
1042.551553,555.134843,2679.961312,-9150.153622
1042.554089,-765.703232,-421.136778,-9303.294269
1042.556625,2756.531635,1397.408398,-9169.296203
1042.559161,823.130974,95.712904,-9245.866526
1042.561697,1473.978722,1339.980656,-9092.725880
1042.564233,-306.281293,2335.394858,-9035.298138
1042.566769,-1780.260014,133.998066,-9111.868461
1042.569305,-976.271621,1071.984525,-9284.151688
1042.571841,765.703232,-1933.400661,-8939.585234
1042.574377,421.136778,2297.109696,-9188.438784
1042.576913,-2239.681954,2775.674216,-9552.147819
1042.579449,-1895.115499,2163.111630,-9054.440718
1042.581985,-631.705166,-133.998066,-9169.296203
1042.584521,1646.261949,325.423874,-9284.151688
1042.587057,1052.841944,421.136778,-9341.579430
1042.589593,1225.125171,2373.680019,-9284.151688
1042.592129,267.996131,1129.412267,-9131.011042
1042.594665,1588.834206,1588.834206,-9111.868461
1042.597201,-555.134843,-1359.123237,-9035.298138
1042.599737,-1091.127106,-363.709035,-8939.585234
1042.602273,-1856.830338,-765.703232,-9092.725880
1042.604809,-2603.390989,133.998066,-8882.157491
1042.607345,-2833.101958,-1761.117434,-8748.159426
1042.609881,-2277.967115,38.285162,-8901.300072
1042.612417,-2909.672282,-2584.248408,-9245.866526
1042.614953,669.990328,612.562586,-9035.298138
1042.617489,-957.129040,114.855485,-8977.870395
1042.620025,95.712904,-1588.834206,-8767.302006
1042.622561,-191.425808,-325.423874,-8843.872330
1042.625103,-5206.781978,-3120.240670,-9035.298138
1042.627644,1799.402595,153.140646,-8920.442653
1042.630185,-2335.394858,-440.279358,-9169.296203
1042.632726,-2067.398726,114.855485,-8958.727814
1042.635268,-2603.390989,1416.550979,-8633.303941
1042.637809,-3617.947771,-3139.383251,-9054.440718
1042.640350,612.562586,459.421939,-8882.157491
1042.642891,-3675.375514,-3235.096155,-8977.870395
1042.645433,-880.558717,937.986459,-8843.872330
1042.647974,-2928.814862,114.855485,-9016.155557
1042.650515,3043.670347,2143.969050,-9188.438784
1042.653056,-861.416136,95.712904,-9035.298138
1042.655598,1416.550979,-95.712904,-9322.436850
1042.658139,1512.263883,918.843878,-9226.723946
1042.660680,363.709035,440.279358,-9150.153622
1042.663221,650.847747,2335.394858,-8882.157491
1042.665763,-2316.252277,-172.283227,-9131.011042
1042.668304,-765.703232,1071.984525,-9322.436850
1042.670845,-133.998066,1493.121302,-9207.581365
1042.673387,-995.414202,497.707101,-9131.011042
1042.675928,248.853550,1665.404530,-8997.012976
1042.678469,-727.418070,1225.125171,-8882.157491
1042.681010,57.427742,306.281293,-9360.722011
1042.683552,1186.840010,1397.408398,-9265.009107
1042.686093,918.843878,57.427742,-9284.151688
1042.688634,1741.974853,2048.256146,-9169.296203
1042.691175,1014.556782,1052.841944,-9054.440718
1042.693717,535.992262,593.420005,-8997.012976
1042.696258,-1531.406464,-995.414202,-8997.012976
1042.698799,-689.132909,267.996131,-9016.155557
1042.701340,-3273.381317,-2182.254211,-9054.440718
1042.703882,-1569.691626,1110.269686,-8786.444587
1042.706423,-4326.223261,-2852.244539,-8843.872330
1042.708964,-784.845813,516.849682,-8958.727814
1042.711505,-1320.838075,-459.421939,-9092.725880
1042.714047,-267.996131,-440.279358,-8997.012976
1042.716588,-708.275490,-382.851616,-8977.870395
1042.719129,-631.705166,-1799.402595,-8824.729749
1042.721670,-1454.836141,555.134843,-8920.442653
1042.724212,-3024.527766,-2603.390989,-9035.298138
1042.726757,880.558717,1722.832272,-9131.011042
1042.729303,-3062.812928,-2067.398726,-8882.157491
1042.731848,-1550.549045,-363.709035,-8824.729749
1042.734393,-3235.096155,-421.136778,-8748.159426
1042.736939,-1550.549045,-1416.550979,-9169.296203
1042.739484,-2718.246474,-1205.982590,-8863.014910
1042.742030,-1818.545176,-1569.691626,-8977.870395
1042.744575,-1646.261949,727.418070,-8843.872330
1042.747121,248.853550,631.705166,-9245.866526
1042.749666,1397.408398,842.273555,-9111.868461
1042.752211,1761.117434,229.710970,-9188.438784
1042.754757,1416.550979,497.707101,-9322.436850
1042.757302,574.277424,765.703232,-9284.151688
1042.759848,210.568389,1531.406464,-8997.012976
1042.762393,-1014.556782,899.701298,-9073.583299
1042.764939,-1301.695494,267.996131,-9188.438784
1042.767484,-114.855485,-689.132909,-9322.436850
1042.770029,1225.125171,650.847747,-9016.155557
1042.772575,1263.410333,1454.836141,-9035.298138
1042.775120,-1550.549045,612.562586,-8843.872330
1042.777666,-421.136778,1129.412267,-9303.294269
1042.780211,689.132909,669.990328,-9341.579430
1042.782757,1607.976787,612.562586,-9341.579430
1042.785302,1550.549045,1569.691626,-9131.011042
1042.787847,612.562586,1493.121302,-9131.011042
1042.790393,861.416136,899.701298,-9111.868461
1042.792938,-1512.263883,-1684.547110,-9035.298138
1042.795484,-555.134843,-76.570323,-8997.012976
1042.798029,-2737.389054,-1378.265818,-9092.725880
1042.800575,-2029.113565,516.849682,-8805.587168
1042.803120,-3732.803256,-2201.396792,-8805.587168
1042.805665,-1627.119368,133.998066,-8997.012976
1042.808211,-1722.832272,-784.845813,-9169.296203
1042.810756,-765.703232,306.281293,-9016.155557
1042.813302,-555.134843,-516.849682,-8939.585234
1042.815847,-1627.119368,497.707101,-9207.581365
1042.818393,-1550.549045,-1454.836141,-8843.872330
1042.820938,-1799.402595,-1761.117434,-8824.729749
1042.823483,57.427742,-1205.982590,-9092.725880
1042.826029,-1091.127106,-248.853550,-8863.014910
1042.828578,-2871.387120,-746.560651,-8633.303941
1042.831127,-2086.541307,-153.140646,-8709.874264
1042.833677,-2316.252277,-1454.836141,-8997.012976
1042.836226,-2545.963246,-1875.972918,-9169.296203
1042.838775,-2545.963246,-1416.550979,-8882.157491
1042.841325,-1359.123237,650.847747,-8939.585234
1042.843874,-784.845813,2124.826469,-9245.866526
1042.846423,-95.712904,-95.712904,-9265.009107
1042.848973,2737.389054,1033.699363,-9188.438784
1042.851522,1186.840010,-191.425808,-9322.436850
1042.854071,1339.980656,1550.549045,-9265.009107
1042.856620,-401.994197,1378.265818,-9111.868461
1042.859170,-823.130974,1148.554848,-8939.585234
1042.861719,-1607.976787,631.705166,-9150.153622
1042.864268,-880.558717,861.416136,-9111.868461
1042.866818,-995.414202,1990.828403,-9322.436850
1042.869367,-669.990328,-995.414202,-9131.011042
1042.871916,2297.109696,2641.676150,-8709.874264
1042.874466,-1129.412267,-172.283227,-9054.440718
1042.877015,1244.267752,803.988394,-9475.577496
1042.879564,-76.570323,-497.707101,-9456.434915
1042.882114,3311.666478,2450.250342,-9092.725880
1042.884663,1799.402595,2986.242605,-8939.585234
1042.887212,-114.855485,-593.420005,-9150.153622
1042.889761,-1052.841944,-765.703232,-8901.300072
1042.892311,-746.560651,-899.701298,-9092.725880
1042.894860,-2392.822600,-765.703232,-8939.585234
1042.897409,-2871.387120,-19.142581,-8863.014910
1042.899959,-3598.805190,-1416.550979,-8786.444587
1042.902508,-2048.256146,-708.275490,-9035.298138
1042.905057,-669.990328,0.000000,-9169.296203
1042.907607,-746.560651,-421.136778,-9111.868461
1042.910156,-382.851616,-325.423874,-8824.729749
1042.912705,-1531.406464,-2488.535504,-8882.157491
1042.915254,248.853550,593.420005,-8767.302006
1042.917804,-2679.961312,-2335.394858,-8997.012976
1042.920353,-76.570323,899.701298,-9284.151688
1042.922902,-2488.535504,-784.845813,-8748.159426
1042.925452,-2507.678085,-287.138712,-8786.444587
1042.928001,-3005.385186,172.283227,-8748.159426
1042.930554,-1761.117434,-2565.105827,-9016.155557
1042.933107,-2392.822600,-401.994197,-8958.727814
1042.935660,-2660.818731,-2086.541307,-9073.583299
1042.938213,-861.416136,2335.394858,-8958.727814
1042.940766,689.132909,-133.998066,-9284.151688
1042.943318,3177.668413,2163.111630,-8997.012976
1042.945871,899.701298,-459.421939,-9284.151688
1042.948424,2086.541307,899.701298,-9303.294269
1042.950977,-57.427742,363.709035,-9131.011042
1042.953530,248.853550,1818.545176,-8958.727814
1042.956083,-1512.263883,669.990328,-8997.012976
1042.958636,-1244.267752,440.279358,-9265.009107
1042.961189,1473.978722,1473.978722,-9150.153622
1042.963742,-1837.687757,306.281293,-9341.579430
1042.966294,2545.963246,1091.127106,-8767.302006
1042.968847,-1033.699363,899.701298,-8843.872330
1042.971400,191.425808,669.990328,-9284.151688
1042.973953,1320.838075,1703.689691,-9418.149754
1042.976506,995.414202,-95.712904,-9456.434915
1042.979059,2086.541307,2967.100024,-8997.012976
1042.981612,-363.709035,363.709035,-9111.868461
1042.984165,650.847747,38.285162,-9073.583299
1042.986717,-2411.965181,-1741.974853,-8997.012976
1042.989270,287.138712,-363.709035,-8997.012976
1042.991823,-4326.223261,-1148.554848,-8958.727814
1042.994376,-1856.830338,-918.843878,-8786.444587
1042.996929,-3694.518094,172.283227,-8882.157491
1042.999482,-3522.234867,-2775.674216,-9226.723946
1043.002035,918.843878,803.988394,-8977.870395
1043.004588,-1320.838075,-1665.404530,-8958.727814
1043.007140,-325.423874,1837.687757,-9169.296203
1043.009693,-3656.232933,-1703.689691,-8920.442653
1043.012246,765.703232,-2009.970984,-8786.444587
1043.014799,-1225.125171,153.140646,-8958.727814
1043.017352,-2545.963246,-1071.984525,-9016.155557
1043.019905,-2220.539373,229.710970,-8824.729749
1043.022458,-3503.092286,-1588.834206,-8805.587168
1043.025011,-823.130974,-478.564520,-8977.870395
1043.027563,-2852.244539,-1416.550979,-8997.012976
1043.030116,-2220.539373,-2373.680019,-9035.298138
1043.032672,-1703.689691,1435.693560,-8882.157491
1043.035227,-421.136778,1339.980656,-9303.294269
1043.037783,440.279358,746.560651,-9207.581365
1043.040338,2239.681954,1129.412267,-9169.296203
1043.042894,1780.260014,-114.855485,-9322.436850
1043.045450,842.273555,1186.840010,-9265.009107
1043.048005,-172.283227,1033.699363,-9016.155557
1043.050561,-823.130974,1167.697429,-8920.442653
1043.053116,-995.414202,-669.990328,-8939.585234
1043.055672,-363.709035,-382.851616,-9284.151688
1043.058227,1761.117434,382.851616,-9054.440718
1043.060783,1454.836141,57.427742,-9035.298138
1043.063338,574.277424,1148.554848,-8748.159426
1043.065894,-669.990328,57.427742,-9207.581365
1043.068449,1780.260014,1052.841944,-9379.864592
1043.071005,746.560651,784.845813,-9399.007173
1043.073561,2163.111630,1397.408398,-9150.153622
1043.076116,1550.549045,2335.394858,-9073.583299
1043.078672,-421.136778,-1780.260014,-8958.727814
1043.081227,-880.558717,-57.427742,-8863.014910
1043.083783,-1550.549045,-1703.689691,-9169.296203
1043.086338,-2277.967115,95.712904,-8863.014910
1043.088894,-3139.383251,-1435.693560,-8786.444587
1043.091449,-2967.100024,191.425808,-8767.302006
1043.094005,-2603.390989,-1780.260014,-9111.868461
1043.096560,363.709035,-229.710970,-8977.870395
1043.099116,-306.281293,-306.281293,-9092.725880
1043.101671,-133.998066,-1263.410333,-8786.444587
1043.104227,1052.841944,-1033.699363,-8920.442653
1043.106783,-4594.219392,-1071.984525,-8958.727814
1043.109338,-957.129040,-976.271621,-9207.581365
1043.111894,-459.421939,555.134843,-9111.868461
1043.114449,-3790.230998,-2182.254211,-8939.585234
1043.117005,-689.132909,1569.691626,-8499.305875
1043.119560,-3637.090352,-2967.100024,-9035.298138
1043.122116,-1359.123237,-937.986459,-9035.298138
1043.124671,-3560.520029,-1818.545176,-8997.012976
1043.127227,-229.710970,823.130974,-8939.585234
1043.129782,-1071.984525,2890.529701,-9207.581365
1043.132338,382.851616,-478.564520,-9131.011042
1043.134896,3120.240670,1895.115499,-9131.011042
1043.137454,995.414202,-765.703232,-9284.151688
1043.140012,1990.828403,2086.541307,-9284.151688
1043.142570,-1454.836141,861.416136,-9188.438784
1043.145128,-382.851616,1263.410333,-8901.300072
1043.147686,-1244.267752,-248.853550,-9054.440718
1043.150243,401.994197,1397.408398,-9265.009107
1043.152801,-1780.260014,650.847747,-9150.153622
1043.155359,-76.570323,1397.408398,-9111.868461
1043.157917,-1071.984525,1722.832272,-9073.583299
1043.160475,306.281293,1148.554848,-9284.151688
1043.163033,2029.113565,191.425808,-9360.722011
1043.165591,1263.410333,765.703232,-9418.149754
1043.168149,1052.841944,1512.263883,-9303.294269
1043.170707,1052.841944,1244.267752,-9035.298138
1043.173265,-612.562586,-803.988394,-9016.155557
1043.175823,-823.130974,478.564520,-8920.442653
1043.178381,-2316.252277,-2009.970984,-9111.868461
1043.180939,-2622.533570,-114.855485,-8939.585234
1043.183497,-3215.953574,-2603.390989,-8671.589102
1043.186054,-2182.254211,1014.556782,-8709.874264
1043.188612,-3349.951640,-2029.113565,-9092.725880
1043.191170,708.275490,0.000000,-9016.155557
1043.193728,-478.564520,-1052.841944,-9054.440718
1043.196286,210.568389,-1359.123237,-8824.729749
1043.198844,-1646.261949,229.710970,-8997.012976
1043.201402,-2967.100024,-2545.963246,-8901.300072
1043.203960,689.132909,2009.970984,-8997.012976
1043.206518,-3043.670347,-2603.390989,-9150.153622
1043.209076,-1225.125171,459.421939,-8748.159426
1043.211634,-3885.943902,0.000000,-8786.444587
1043.214192,-1703.689691,-2297.109696,-9054.440718
1043.216752,-2622.533570,-19.142581,-8882.157491
1043.219312,-2297.109696,-2258.824534,-9150.153622
1043.221872,-669.990328,2411.965181,-8920.442653
1043.224432,1091.127106,57.427742,-9188.438784
1043.226993,1435.693560,2182.254211,-9092.725880
1043.229553,861.416136,-650.847747,-9265.009107
1043.232113,2048.256146,1512.263883,-9341.579430
1043.234673,-133.998066,-153.140646,-9131.011042
1043.237233,535.992262,2469.392923,-8958.727814
1043.239793,-2392.822600,114.855485,-9131.011042
1043.242354,210.568389,-382.851616,-8920.442653
1043.244914,95.712904,267.996131,-9131.011042
1043.247474,-937.986459,842.273555,-9169.296203
1043.250034,-1186.840010,153.140646,-8977.870395
1043.252594,612.562586,1627.119368,-9131.011042
1043.255155,880.558717,535.992262,-9322.436850
1043.257715,1895.115499,727.418070,-9303.294269
1043.260275,1282.552914,976.271621,-9322.436850
1043.262835,1320.838075,1684.547110,-9054.440718
1043.265395,555.134843,1435.693560,-8977.870395
1043.267955,-2124.826469,-1856.830338,-8977.870395
1043.270516,76.570323,593.420005,-8977.870395
1043.273076,-3732.803256,-2182.254211,-9054.440718
1043.275636,-1818.545176,19.142581,-8843.872330
1043.278196,-4804.787781,-2009.970984,-8863.014910
1043.280756,-995.414202,-248.853550,-8977.870395
1043.283316,-1665.404530,-133.998066,-9092.725880
1043.285877,-516.849682,-516.849682,-9131.011042
1043.288437,-57.427742,535.992262,-8958.727814
1043.290997,-1493.121302,-2813.959378,-9035.298138
1043.293557,842.273555,-1416.550979,-8614.161360
1043.296117,-2641.676150,-191.425808,-8920.442653
1043.298677,-2048.256146,-1033.699363,-9188.438784
1043.301238,-2622.533570,-287.138712,-8901.300072
1043.303798,-2335.394858,-497.707101,-8786.444587
1043.306358,-1263.410333,-976.271621,-8805.587168
1043.308918,-2794.816797,-1512.263883,-8939.585234
1043.311478,-2431.107762,-1990.828403,-9131.011042
1043.314039,-1378.265818,1588.834206,-8901.300072
1043.316599,267.996131,765.703232,-9265.009107
1043.319160,401.994197,1205.982590,-9169.296203
1043.321722,2335.394858,976.271621,-9150.153622
1043.324284,1837.687757,133.998066,-9265.009107
1043.326846,842.273555,918.843878,-9169.296203
1043.329407,-650.847747,1129.412267,-9131.011042
1043.331969,-1301.695494,995.414202,-8977.870395
1043.334531,-1052.841944,1493.121302,-9322.436850
1043.337092,-2067.398726,-421.136778,-9207.581365
1043.339654,1799.402595,1186.840010,-9131.011042
1043.342216,-593.420005,497.707101,-9245.866526
1043.344777,-803.988394,153.140646,-9150.153622
1043.347339,1684.547110,2641.676150,-9073.583299
1043.349901,-57.427742,-746.560651,-9571.290400
1043.352463,2622.533570,1837.687757,-9265.009107
1043.355024,382.851616,823.130974,-9226.723946
1043.357586,1339.980656,2182.254211,-9035.298138
1043.360148,-2029.113565,-1741.974853,-8920.442653
1043.362709,248.853550,382.851616,-9016.155557
1043.365271,-3426.521963,-1531.406464,-9016.155557
1043.367833,-2220.539373,-535.992262,-8863.014910
1043.370394,-4402.793584,-1473.978722,-8786.444587
1043.372956,-1837.687757,-516.849682,-8958.727814
1043.375518,-1588.834206,-459.421939,-9092.725880
1043.378080,-593.420005,-1033.699363,-9054.440718
1043.380641,-19.142581,1033.699363,-9188.438784
1043.383203,-2411.965181,57.427742,-8939.585234
1043.385765,-5800.201982,-555.134843,-9265.009107
1043.388326,-459.421939,-401.994197,-8997.012976
1043.390888,669.990328,-497.707101,-8824.729749
1043.393450,-2641.676150,-1818.545176,-8939.585234
1043.396011,-3426.521963,631.705166,-8863.014910
1043.398573,-2794.816797,-2086.541307,-8920.442653
1043.401135,-1378.265818,-382.851616,-8882.157491
1043.403697,-2660.818731,-1473.978722,-8977.870395
1043.406258,-497.707101,861.416136,-8939.585234
1043.408820,-440.279358,2297.109696,-9265.009107
1043.411382,459.421939,-191.425808,-9188.438784
1043.413943,3120.240670,2450.250342,-9073.583299
1043.416505,1397.408398,-803.988394,-9284.151688
1043.419067,1263.410333,2009.970984,-9188.438784
1043.421630,-1129.412267,535.992262,-9169.296203
1043.424193,-421.136778,1588.834206,-9111.868461
1043.426756,-1339.980656,-19.142581,-9054.440718
1043.429319,1071.984525,-421.136778,-9207.581365
1043.431883,-287.138712,401.994197,-8901.300072
1043.434446,478.564520,133.998066,-8977.870395
1043.437009,-363.709035,1722.832272,-9054.440718
1043.439572,133.998066,1320.838075,-9284.151688
1043.442135,1607.976787,689.132909,-9437.292334
1043.444699,1722.832272,842.273555,-9379.864592
1043.447262,1627.119368,1148.554848,-9054.440718
1043.449825,593.420005,1033.699363,-8958.727814
1043.452388,-1761.117434,-459.421939,-8882.157491
1043.454951,-842.273555,-114.855485,-8958.727814
1043.457515,-2622.533570,-1646.261949,-9131.011042
1043.460078,-2316.252277,-1110.269686,-8901.300072
1043.462641,-3694.518094,-1014.556782,-8767.302006
1043.465204,-1990.828403,-689.132909,-8901.300072
1043.467767,-1205.982590,-325.423874,-8977.870395
1043.470331,19.142581,-1148.554848,-9035.298138
1043.472894,-172.283227,708.275490,-9092.725880
1043.475457,-2737.389054,-1071.984525,-9016.155557
1043.478020,382.851616,-516.849682,-8939.585234
1043.480583,-3598.805190,-995.414202,-9016.155557
1043.483146,-2488.535504,-2794.816797,-9111.868461
1043.485710,-1588.834206,1244.267752,-8786.444587
1043.488273,-4326.223261,-2086.541307,-8939.585234
1043.490836,-880.558717,0.000000,-8843.872330
1043.493399,-4153.940034,-2679.961312,-8997.012976
1043.495962,-1186.840010,-631.705166,-8958.727814
1043.498526,-2507.678085,727.418070,-9150.153622
1043.501089,2105.683888,248.853550,-9188.438784
1043.503652,1148.554848,1895.115499,-9169.296203
1043.506215,1780.260014,689.132909,-9265.009107
1043.508778,1531.406464,574.277424,-9226.723946
1043.511342,861.416136,727.418070,-9131.011042
1043.513905,-172.283227,1741.974853,-8997.012976
1043.516468,-2143.969050,459.421939,-9169.296203
1043.519031,19.142581,0.000000,-9399.007173
1043.521594,689.132909,133.998066,-8939.585234
1043.524159,1033.699363,1416.550979,-9131.011042
1043.526723,-2239.681954,708.275490,-9150.153622
1043.529288,325.423874,1416.550979,-9188.438784
1043.531852,1186.840010,976.271621,-9226.723946
1043.534416,1837.687757,1148.554848,-9418.149754
1043.536981,1263.410333,1148.554848,-9303.294269
1043.539545,210.568389,516.849682,-9111.868461
1043.542110,1091.127106,344.566454,-8843.872330
1043.544674,-2526.820666,-765.703232,-8997.012976
1043.547239,-1186.840010,-555.134843,-9035.298138
1043.549803,-3522.234867,-1282.552914,-8977.870395
1043.552368,-2182.254211,-1780.260014,-8805.587168
1043.554932,-3617.947771,38.285162,-8843.872330
1043.557496,-2641.676150,-1684.547110,-9169.296203
1043.560061,631.705166,918.843878,-9035.298138
1043.562625,-1550.549045,-459.421939,-9169.296203
1043.565190,1225.125171,-363.709035,-8805.587168
1043.567754,-3120.240670,-516.849682,-9226.723946
1043.570319,-3675.375514,-191.425808,-9188.438784
1043.572883,-248.853550,210.568389,-8901.300072
1043.575447,-2067.398726,-1339.980656,-9092.725880
1043.578012,-2775.674216,-1033.699363,-8805.587168
1043.580576,-1933.400661,-248.853550,-8805.587168
1043.583141,-4134.797453,-2526.820666,-9092.725880
1043.585705,-1741.974853,-1493.121302,-8939.585234
1043.588270,-2029.113565,459.421939,-8958.727814
1043.590834,38.285162,1703.689691,-9284.151688
1043.593398,842.273555,1205.982590,-9188.438784
1043.595963,2297.109696,1129.412267,-9188.438784
1043.598527,2354.537438,363.709035,-9265.009107
1043.601092,612.562586,995.414202,-9341.579430
1043.603656,-306.281293,746.560651,-8939.585234
1043.606221,-669.990328,1454.836141,-9092.725880
1043.608785,-1244.267752,1263.410333,-9341.579430
1043.611349,-1933.400661,-153.140646,-9284.151688
1043.613914,1320.838075,1014.556782,-9245.866526
1043.616478,306.281293,1397.408398,-8786.444587
1043.619043,-1033.699363,497.707101,-9226.723946
1043.621607,1588.834206,2354.537438,-9111.868461
1043.624172,842.273555,-344.566454,-9494.720077
1043.626737,2258.824534,1646.261949,-9284.151688
1043.629303,306.281293,880.558717,-9265.009107
1043.631869,1052.841944,1627.119368,-8977.870395
1043.634434,-2029.113565,-1378.265818,-8882.157491
1043.637000,-612.562586,-842.273555,-8977.870395
1043.639566,-3081.955509,-1378.265818,-8977.870395
1043.642131,-2297.109696,-1263.410333,-8939.585234
1043.644697,-3962.514226,-746.560651,-8805.587168
1043.647263,-2105.683888,-1110.269686,-9035.298138
1043.649828,-823.130974,191.425808,-8997.012976
1043.652394,-574.277424,-1378.265818,-9150.153622
1043.654960,-19.142581,-459.421939,-8901.300072
1043.657525,344.566454,-3235.096155,-8901.300072
1043.660091,325.423874,1952.543242,-8863.014910
1043.662657,-5570.491013,-2277.967115,-9360.722011
1043.665222,-1091.127106,555.134843,-9092.725880
1043.667788,-3445.664544,-2124.826469,-8824.729749
1043.670354,-191.425808,1244.267752,-8671.589102
1043.672919,-5091.926493,-3426.521963,-9035.298138
1043.675485,-2890.529701,-3311.666478,-9169.296203
1043.678051,-1684.547110,1741.974853,-8997.012976
1043.680616,-727.418070,172.283227,-9245.866526
1043.683182,2507.678085,1914.258080,-9111.868461
1043.685748,1071.984525,899.701298,-9188.438784
1043.688313,2565.105827,650.847747,-9303.294269
1043.690879,325.423874,287.138712,-9303.294269
1043.693445,-516.849682,344.566454,-9035.298138
1043.696010,-19.142581,2086.541307,-9035.298138
1043.698576,-803.988394,-899.701298,-8977.870395
1043.701142,1378.265818,191.425808,-9092.725880
1043.703707,-1493.121302,574.277424,-9092.725880
1043.706273,1282.552914,153.140646,-8824.729749
1043.708839,-1033.699363,1875.972918,-9188.438784
1043.711404,133.998066,1033.699363,-9322.436850
