#time,accel_x,accel_y,accel_z
1075.248606,3701.029710,-73851.606007,1036.288319
1075.251171,-1776.494261,-74311.263306,2812.782580
1075.253736,888.247130,-74311.263306,1332.370696
1075.256300,-1332.370696,-74770.920605,444.123565
1075.258865,-4885.359217,-74311.263306,3108.864956
1075.261430,4441.235652,-74158.044206,3256.906145
1075.263995,1332.370696,-73851.606007,296.082377
1075.266559,-2220.617826,-74311.263306,1924.535449
1075.269124,1628.453072,-74158.044206,444.123565
1075.271689,-1480.411884,-74158.044206,3108.864956
1075.274253,1776.494261,-74464.482406,2368.659014
1075.276818,4589.276840,-74770.920605,888.247130
1075.279383,-1776.494261,-74004.825107,888.247130
1075.281948,-1628.453072,-73391.948708,1036.288319
1075.284512,1184.329507,-74311.263306,1628.453072
1075.287077,1036.288319,-73698.386908,2516.700203
1075.289642,1776.494261,-74311.263306,888.247130
1075.292206,-2812.782580,-73851.606007,-0.000000
1075.294771,-2516.700203,-74311.263306,3108.864956
1075.297336,1480.411884,-74617.701505,2220.617826
1075.299901,1184.329507,-73698.386908,1628.453072
1075.302465,9030.512492,-74770.920605,1924.535449
1075.305030,-9030.512492,-75077.358804,-3701.029710
1075.307595,12287.418637,-72166.195912,2960.823768
1075.310159,15988.448347,-76149.892501,7550.100608
1075.312724,-740.205942,-74770.920605,12435.459826
1075.315289,5625.565159,-74004.825107,5477.523971
1075.317853,1480.411884,-74004.825107,-1184.329507
1075.320418,5921.647536,-73391.948708,1184.329507
1075.322983,6661.853478,-72779.072310,8142.265362
1075.325548,10510.924376,-71859.757712,9770.718434
1075.328112,-6809.894666,-74158.044206,7105.977043
1075.330677,-1924.535449,-75690.235202,-592.164754
1075.333242,592.164754,-75843.454302,-8290.306550
1075.335806,-1332.370696,-72932.291410,-0.000000
1075.338371,8142.265362,-71706.538613,2960.823768
1075.340936,-7550.100608,-73851.606007,888.247130
1075.343501,-6513.812290,-75230.577904,-444.123565
1075.346061,-12139.377449,-75843.454302,-2812.782580
1075.348621,-6809.894666,-74311.263306,-1924.535449
1075.351181,740.205942,-73698.386908,-4441.235652
1075.353741,592.164754,-73085.510509,444.123565
1075.356301,2220.617826,-74464.482406,2812.782580
1075.358861,-13323.706956,-76915.987999,2960.823768
1075.361421,-3701.029710,-76149.892501,-444.123565
1075.363981,-17024.736666,-76915.987999,3256.906145
1075.366541,-3701.029710,-73698.386908,7402.059420
1075.369101,9622.677246,-72166.195912,-6069.688724
1075.371661,444.123565,-73545.167808,2664.741391
1075.374221,-7994.224174,-74311.263306,4589.276840
1075.376781,9030.512492,-77069.207099,3997.112087
1075.379341,-17912.983796,-76149.892501,-2368.659014
1075.381902,6365.771101,-74770.920605,-1332.370696
1075.384462,148.041188,-73545.167808,-4885.359217
1075.387022,-2812.782580,-74158.044206,-296.082377
1075.389582,6217.729913,-75077.358804,-3997.112087
1075.392142,-12879.583391,-74311.263306,-1480.411884
1075.394702,-4293.194464,-74464.482406,-1184.329507
1075.397262,-7846.182985,-74770.920605,-1628.453072
1075.399822,-10362.883188,-74004.825107,1480.411884
1075.402382,1924.535449,-74311.263306,-3997.112087
1075.404942,4589.276840,-72166.195912,-1776.494261
1075.407502,2664.741391,-73851.606007,3849.070898
1075.410062,-18061.024985,-75537.016103,-1628.453072
1075.412622,-5181.441594,-74924.139704,444.123565
1075.415182,-12583.501014,-75537.016103,-2072.576638
1075.417742,13027.624579,-72319.415011,296.082377
1075.420302,148.041188,-72472.634111,-888.247130
1075.422863,5033.400406,-73851.606007,1924.535449
1075.425423,-1332.370696,-75690.235202,4589.276840
1075.427983,-1332.370696,-72472.634111,22650.301825
1075.430543,-2072.576638,-75690.235202,1036.288319
1075.433103,5033.400406,-78294.959896,-9030.512492
1075.435663,7550.100608,-75383.797003,-5329.482782
1075.438223,10510.924376,-69255.033019,5477.523971
1075.440783,4441.235652,-68335.718422,16136.489536
1075.443343,2072.576638,-74311.263306,17912.983796
1075.445903,1184.329507,-78754.617194,3552.988522
1075.448327,-1776.494261,-77222.426198,-2812.782580
1075.450751,10955.047942,-72625.853210,1628.453072
1075.453176,4737.318029,-70787.224015,4885.359217
1075.455600,6217.729913,-72472.634111,4737.318029
1075.458024,9770.718434,-74924.139704,4441.235652
1075.460448,-3701.029710,-76303.111601,6957.935855
1075.462873,1184.329507,-79520.712692,11399.171507
1075.465297,19393.395680,-76609.549800,15692.365970
1075.467721,32717.102636,-73851.606007,6661.853478
1075.470145,-16876.695478,-72779.072310,2960.823768
1075.472569,13027.624579,-72472.634111,1628.453072
1075.474994,-6809.894666,-74004.825107,592.164754
1075.477418,12287.418637,-77682.083497,7698.141797
1075.479842,-2664.741391,-77528.864398,6513.812290
1075.482266,17764.942608,-72779.072310,12287.418637
1075.484691,7550.100608,-72012.976812,9030.512492
1075.487115,-1628.453072,-74158.044206,8438.347739
1075.489539,7698.141797,-76762.768900,592.164754
1075.491963,-4145.153275,-76456.330700,-1776.494261
1075.494387,6809.894666,-72472.634111,-1924.535449
1075.496812,444.123565,-72319.415011,2516.700203
1075.499236,9918.759623,-71859.757712,10214.842000
1075.501660,9770.718434,-72166.195912,12139.377449
1075.504084,1776.494261,-75077.358804,11991.336260
1075.506508,740.205942,-76456.330700,14656.077652
1075.508933,-4145.153275,-77528.864398,-5625.565159
1075.511357,12287.418637,-74924.139704,148.041188
1075.513781,-1036.288319,-72625.853210,-2960.823768
1075.516205,-6513.812290,-70634.004916,-1628.453072
1075.518630,-7846.182985,-75537.016103,-5921.647536
1075.521054,-15544.324782,-72779.072310,1776.494261
1075.523478,8290.306550,-75077.358804,1332.370696
1075.525902,-23686.590144,-76303.111601,-4441.235652
1075.528326,1332.370696,-75690.235202,-2664.741391
1075.530751,-0.000000,-73698.386908,-3552.988522
1075.533175,-5773.606348,-72166.195912,740.205942
1075.535599,10658.965565,-73545.167808,-1036.288319
1075.538023,-13915.871710,-75690.235202,-1480.411884
1075.540448,-9770.718434,-74617.701505,-4145.153275
1075.542872,-6809.894666,-74158.044206,-3701.029710
1075.545342,-2368.659014,-73851.606007,-2368.659014
1075.547810,444.123565,-74158.044206,592.164754
1075.550278,444.123565,-74617.701505,-1480.411884
1075.552746,-11251.130318,-73391.948708,-296.082377
1075.555215,2368.659014,-77682.083497,6365.771101
1075.557683,-9918.759623,-74311.263306,5181.441594
1075.560151,1480.411884,-72932.291410,-3849.070898
1075.562619,-5181.441594,-71706.538613,-740.205942
1075.565087,17172.777854,-72625.853210,1628.453072
1075.567556,-20873.807564,-74924.139704,-6217.729913
1075.570024,7254.018232,-78141.740796,740.205942
1075.572492,-5921.647536,-77528.864398,-4737.318029
1075.574960,-13767.830521,-73545.167808,296.082377
1075.577428,11695.253884,-71246.881314,-5181.441594
1075.579897,-16284.530724,-72472.634111,-2072.576638
1075.582365,-7994.224174,-74617.701505,-1924.535449
1075.584833,-8734.430116,-75996.673402,-3256.906145
1075.587301,-12139.377449,-75383.797003,-3701.029710
1075.589769,5921.647536,-73851.606007,-1184.329507
1075.592238,-148.041188,-72472.634111,-148.041188
1075.594706,444.123565,-72319.415011,5033.400406
1075.597174,-10362.883188,-76762.768900,-6069.688724
1075.599642,-14508.036463,-76456.330700,-3997.112087
1075.602111,-7402.059420,-75537.016103,-7550.100608
1075.604579,7846.182985,-72012.976812,-2368.659014
1075.607047,592.164754,-71400.100414,-592.164754
1075.609515,9326.594869,-73391.948708,-0.000000
1075.611983,2072.576638,-74158.044206,9770.718434
1075.614452,3849.070898,-73545.167808,16284.530724
1075.616920,-6217.729913,-76762.768900,-2368.659014
1075.619388,6809.894666,-77528.864398,-6217.729913
1075.621856,6809.894666,-74311.263306,-5625.565159
1075.624324,8734.430116,-68182.499322,5477.523971
1075.626793,10066.800811,-68335.718422,12139.377449
1075.629261,-4885.359217,-74924.139704,8882.471304
1075.631729,3256.906145,-78754.617194,1184.329507
1075.634197,-3404.947333,-76762.768900,-740.205942
1075.636665,10066.800811,-73085.510509,2960.823768
1075.639134,8290.306550,-72319.415011,5329.482782
1075.641602,16432.571912,-71706.538613,2664.741391
1075.644102,2812.782580,-74464.482406,2812.782580
1075.646601,13323.706956,-74617.701505,2368.659014
1075.649101,17764.942608,-75230.577904,8438.347739
1075.651601,-10807.006753,-74770.920605,1184.329507
1075.654101,8290.306550,-74464.482406,1184.329507
1075.656601,4737.318029,-73391.948708,2960.823768
1075.659101,-15396.283594,-72012.976812,1480.411884
1075.661600,18505.148550,-75690.235202,8142.265362
1075.664100,-8438.347739,-76456.330700,3849.070898
1075.666600,-4293.194464,-75077.358804,9326.594869
1075.669100,17172.777854,-73545.167808,9326.594869
1075.671600,-7402.059420,-72319.415011,6217.729913
1075.674099,9918.759623,-74311.263306,4441.235652
1075.676599,1184.329507,-75843.454302,148.041188
1075.679099,1332.370696,-73545.167808,-3997.112087
1075.681599,7105.977043,-72932.291410,-1924.535449
1075.684099,7254.018232,-72779.072310,12879.583391
1075.686598,12583.501014,-74004.825107,14211.954086
1075.689098,-1184.329507,-74464.482406,15100.201217
1075.691598,444.123565,-76609.549800,8290.306550
1075.694098,5181.441594,-77222.426198,-4293.194464
1075.696598,148.041188,-74464.482406,-3701.029710
1075.699097,8734.430116,-71093.662214,2072.576638
1075.701597,-24426.796086,-73085.510509,-5033.400406
1075.704097,12731.542202,-73698.386908,5033.400406
1075.706597,-10807.006753,-74617.701505,-296.082377
1075.709097,-9030.512492,-73391.948708,-1332.370696
1075.711596,-740.205942,-77069.207099,-4589.276840
1075.714096,-11991.336260,-74464.482406,-6217.729913
1075.716596,8142.265362,-71553.319513,2220.617826
1075.719096,-4885.359217,-72932.291410,-0.000000
1075.721596,-2516.700203,-74770.920605,1184.329507
1075.724095,-2368.659014,-76609.549800,-3552.988522
1075.726595,-15396.283594,-74464.482406,-4589.276840
1075.729095,-296.082377,-73238.729609,-1332.370696
1075.731595,3552.988522,-74158.044206,-2516.700203
1075.734095,3108.864956,-74004.825107,-1480.411884
1075.736595,1036.288319,-74770.920605,1184.329507
1075.739094,-12583.501014,-77222.426198,1924.535449
1075.741594,-22946.384202,-73085.510509,3552.988522
1075.744017,22798.343014,-74311.263306,296.082377
1075.746440,-20725.766376,-72012.976812,-3108.864956
1075.748863,27683.702231,-71706.538613,9326.594869
1075.751286,-32272.979071,-75537.016103,-1184.329507
1075.753709,-4441.235652,-73545.167808,-1628.453072
1075.756132,-3701.029710,-75537.016103,-10362.883188
1075.758556,-28571.949361,-73698.386908,-740.205942
1075.760979,15692.365970,-74311.263306,1776.494261
1075.763402,-13619.789333,-73238.729609,-4293.194464
1075.765825,-8882.471304,-74311.263306,-592.164754
1075.768248,-1776.494261,-76303.111601,-4589.276840
1075.770671,-12879.583391,-75383.797003,-1332.370696
1075.773094,13027.624579,-74004.825107,-3108.864956
1075.775517,-0.000000,-72932.291410,6217.729913
1075.777940,-13027.624579,-74770.920605,-888.247130
1075.780363,-8882.471304,-75383.797003,-5329.482782
1075.782786,-12435.459826,-74770.920605,-9030.512492
1075.785209,4441.235652,-73391.948708,-4589.276840
1075.787632,6365.771101,-72319.415011,-592.164754
1075.790055,-0.000000,-73698.386908,-2220.617826
1075.792478,6069.688724,-73851.606007,9918.759623
1075.794901,9030.512492,-72166.195912,23094.425390
1075.797325,-9474.636058,-76303.111601,4145.153275
1075.799748,9474.636058,-78907.836294,-7254.018232
1075.802171,1628.453072,-76149.892501,-7254.018232
1075.804594,10955.047942,-68182.499322,2960.823768
1075.807017,4589.276840,-67569.622924,11251.130318
1075.809440,3849.070898,-73085.510509,19393.395680
1075.811863,2960.823768,-78448.178995,6513.812290
1075.814286,-6661.853478,-77375.645298,1184.329507
1075.816709,10066.800811,-74004.825107,2220.617826
1075.819132,13767.830521,-71246.881314,4737.318029
1075.821555,12583.501014,-71246.881314,1776.494261
1075.823978,740.205942,-74617.701505,7550.100608
1075.826401,296.082377,-74311.263306,3997.112087
1075.828824,-6217.729913,-74924.139704,11991.336260
1075.831247,39082.873738,-75077.358804,13619.789333
1075.833670,-32717.102636,-73545.167808,-6661.853478
1075.836093,36566.173535,-70940.443115,7846.182985
1075.838517,-18801.230927,-74311.263306,5329.482782
1075.840985,888.247130,-72319.415011,6217.729913
1075.843453,9622.677246,-77682.083497,5033.400406
1075.845921,-12879.583391,-75996.673402,16136.489536
1075.848389,27387.619854,-73545.167808,4145.153275
1075.850857,-5773.606348,-74617.701505,6661.853478
1075.853326,3552.988522,-73391.948708,3256.906145
1075.855794,3256.906145,-74770.920605,-3108.864956
1075.858262,-296.082377,-73545.167808,2812.782580
1075.860730,15840.407159,-73851.606007,8882.471304
1075.863198,9326.594869,-73391.948708,13619.789333
1075.865667,3108.864956,-74924.139704,17320.819043
1075.868135,-1184.329507,-77069.207099,3404.947333
1075.870603,7846.182985,-74924.139704,-1184.329507
1075.873071,5329.482782,-73391.948708,1184.329507
1075.875539,1332.370696,-71400.100414,2812.782580
1075.878008,-18061.024985,-73698.386908,-5477.523971
1075.880476,11547.212695,-74770.920605,-296.082377
1075.882944,-13175.665768,-74617.701505,-1480.411884
1075.885412,-7698.141797,-73391.948708,-592.164754
1075.887880,-1332.370696,-76456.330700,-2368.659014
1075.890349,-5625.565159,-75383.797003,1480.411884
1075.892817,6069.688724,-73085.510509,2072.576638
1075.895285,-4145.153275,-73085.510509,1332.370696
1075.897753,1480.411884,-75843.454302,1184.329507
1075.900221,-16136.489536,-76456.330700,-4145.153275
1075.902690,-7254.018232,-74464.482406,-4589.276840
1075.905158,-2664.741391,-71706.538613,-2368.659014
1075.907626,-7402.059420,-74158.044206,-740.205942
1075.910094,-4145.153275,-74158.044206,-2516.700203
1075.912562,-11399.171507,-76303.111601,-444.123565
1075.915031,-14952.160028,-74770.920605,6513.812290
1075.917499,7846.182985,-74004.825107,-1628.453072
1075.919999,-14211.954086,-73238.729609,-888.247130
1075.922500,-11991.336260,-72625.853210,-2516.700203
1075.925001,8290.306550,-72625.853210,2368.659014
1075.927501,-5033.400406,-75843.454302,-0.000000
1075.930002,-3552.988522,-75537.016103,-4145.153275
1075.932502,4441.235652,-74924.139704,-5921.647536
1075.935003,-11695.253884,-75230.577904,-4885.359217
1075.937503,-148.041188,-72779.072310,-4885.359217
1075.940004,-5921.647536,-73085.510509,-2368.659014
1075.942504,-7846.182985,-74617.701505,148.041188
1075.945005,-4441.235652,-74924.139704,-1924.535449
1075.947505,5625.565159,-75383.797003,2072.576638
1075.950006,5921.647536,-74158.044206,3997.112087
1075.952507,-17172.777854,-74617.701505,-4589.276840
1075.955007,-2960.823768,-74770.920605,-2664.741391
1075.957508,-13323.706956,-75383.797003,-9918.759623
1075.960008,2516.700203,-71859.757712,148.041188
1075.962509,6069.688724,-74311.263306,-3849.070898
1075.965009,2220.617826,-74004.825107,4145.153275
1075.967510,11991.336260,-74311.263306,16432.571912
1075.970010,-148.041188,-72166.195912,20725.766376
1075.972511,1332.370696,-76762.768900,2516.700203
1075.975012,-888.247130,-79061.055394,-6661.853478
1075.977512,7846.182985,-75383.797003,-5329.482782
1075.980013,7846.182985,-68642.156621,3997.112087
1075.982513,5181.441594,-69101.813920,12879.583391
1075.985014,8290.306550,-74617.701505,12731.542202
1075.987514,-5181.441594,-78448.178995,3552.988522
1075.990015,2960.823768,-76762.768900,2812.782580
1075.992515,4589.276840,-74464.482406,3404.947333
1075.995016,9326.594869,-72472.634111,5625.565159
1075.997516,8734.430116,-70787.224015,148.041188
1076.000017,7254.018232,-72012.976812,-2072.576638
1076.002518,-6069.688724,-75230.577904,-5773.606348
1076.005018,-3701.029710,-76149.892501,6513.812290
1076.007519,18357.107362,-75230.577904,3552.988522
1076.010019,-24722.878463,-74004.825107,-148.041188
1076.012520,28719.990550,-71859.757712,9178.553681
1076.015020,-11399.171507,-72625.853210,3256.906145
1076.017521,-15396.283594,-73545.167808,10214.842000
1076.020047,20577.725188,-75230.577904,4737.318029
1076.022573,-9918.759623,-75383.797003,7402.059420
1076.025099,18949.272115,-74158.044206,4885.359217
1076.027625,-2812.782580,-72625.853210,3108.864956
1076.030152,3108.864956,-73698.386908,1628.453072
1076.032678,9622.677246,-73391.948708,1924.535449
1076.035204,6217.729913,-72779.072310,6809.894666
1076.037730,9326.594869,-74158.044206,10510.924376
1076.040256,-5477.523971,-75843.454302,10807.006753
1076.042782,-1480.411884,-77528.864398,-1036.288319
1076.045308,14211.954086,-75690.235202,2516.700203
1076.047834,148.041188,-72012.976812,1924.535449
1076.050361,-6069.688724,-71706.538613,5477.523971
1076.052887,5329.482782,-74924.139704,-7105.977043
1076.055413,-13175.665768,-73085.510509,-4441.235652
1076.057939,7698.141797,-73851.606007,-2664.741391
1076.060465,-21317.931130,-74004.825107,-4885.359217
1076.062991,888.247130,-74617.701505,740.205942
1076.065517,-1480.411884,-74617.701505,-740.205942
1076.068043,-6513.812290,-73851.606007,4885.359217
1076.070570,10066.800811,-73698.386908,592.164754
1076.073096,-16876.695478,-76609.549800,-3256.906145
1076.075622,-3997.112087,-75383.797003,-3256.906145
1076.078148,-12287.418637,-73085.510509,-6957.935855
1076.080674,-2960.823768,-71553.319513,-888.247130
1076.083200,4589.276840,-75537.016103,-0.000000
1076.085726,3552.988522,-72779.072310,-4145.153275
1076.088252,4441.235652,-76149.892501,-5625.565159
1076.090779,-25611.125593,-76609.549800,-4589.276840
1076.093305,-5625.565159,-73545.167808,5477.523971
1076.095831,30200.402434,-72012.976812,1184.329507
1076.098357,-33753.390955,-72625.853210,-3701.029710
1076.100883,17172.777854,-72319.415011,-1332.370696
1076.103409,-9474.636058,-74924.139704,-6513.812290
1076.105935,-19985.560434,-74464.482406,-8142.265362
1076.108461,8882.471304,-74770.920605,-8142.265362
1076.110988,-14359.995275,-73851.606007,-1924.535449
1076.113514,-3849.070898,-72932.291410,-1332.370696
1076.116040,-2516.700203,-73545.167808,-1480.411884
1076.118566,-2072.576638,-74770.920605,2072.576638
1076.121109,7254.018232,-75537.016103,3108.864956
1076.123653,-8882.471304,-75230.577904,1332.370696
1076.126196,-11103.089130,-75537.016103,-5181.441594
1076.128739,-7698.141797,-72779.072310,-6069.688724
1076.131283,2812.782580,-71859.757712,-4589.276840
1076.133826,1776.494261,-74158.044206,-740.205942
1076.136369,5477.523971,-74617.701505,-3552.988522
1076.138913,1628.453072,-75230.577904,8142.265362
1076.141456,13323.706956,-72472.634111,24574.837274
1076.143999,-4293.194464,-74464.482406,19393.395680
1076.146543,6069.688724,-78601.398095,-1924.535449
1076.149086,2368.659014,-77069.207099,-7550.100608
1076.151629,6809.894666,-71246.881314,-1184.329507
1076.154173,9326.594869,-67876.061123,8586.388927
1076.156716,6513.812290,-71093.662214,15692.365970
1076.159259,2516.700203,-77069.207099,10362.883188
1076.161803,-888.247130,-78448.178995,2664.741391
1076.164346,5329.482782,-75843.454302,3997.112087
1076.166889,17172.777854,-73698.386908,6365.771101
1076.169433,3701.029710,-74311.263306,5329.482782
1076.171976,9030.512492,-73545.167808,2812.782580
1076.174519,-10066.800811,-74924.139704,12287.418637
1076.177063,22354.219448,-75843.454302,9474.636058
1076.179606,-3256.906145,-74617.701505,5625.565159
1076.182149,18801.230927,-75230.577904,-7698.141797
1076.184693,-2072.576638,-75077.358804,4885.359217
1076.187236,6069.688724,-72319.415011,13767.830521
1076.189780,9474.636058,-73698.386908,11991.336260
1076.192323,-740.205942,-77069.207099,14211.954086
1076.194866,9918.759623,-77375.645298,1776.494261
1076.197410,-2960.823768,-75843.454302,1776.494261
1076.199953,7550.100608,-73085.510509,740.205942
1076.202496,5921.647536,-71859.757712,6365.771101
1076.205040,1480.411884,-72319.415011,10214.842000
1076.207583,11399.171507,-73545.167808,9622.677246
1076.210126,-1036.288319,-74924.139704,11103.089130
1076.212670,-740.205942,-77222.426198,3108.864956
1076.215213,12435.459826,-77835.302597,-2664.741391
1076.217756,296.082377,-73391.948708,4293.194464
1076.220300,15100.201217,-70940.443115,12879.583391
1076.222856,-22206.178260,-75077.358804,-5625.565159
1076.225412,9770.718434,-75843.454302,-1480.411884
1076.227968,-7698.141797,-75843.454302,-9770.718434
1076.230524,-9326.594869,-72012.976812,-6957.935855
1076.233080,1480.411884,-74158.044206,-4885.359217
1076.235636,-13767.830521,-72779.072310,-1184.329507
1076.238191,8142.265362,-73698.386908,3108.864956
1076.240747,-5477.523971,-74924.139704,1480.411884
1076.243303,-8438.347739,-76303.111601,1184.329507
1076.245859,-5773.606348,-76915.987999,-2664.741391
1076.248415,-13471.748144,-74004.825107,-3997.112087
1076.250971,-6217.729913,-72012.976812,-4737.318029
1076.253527,-13767.830521,-71400.100414,-3404.947333
1076.256083,-3552.988522,-74311.263306,-1480.411884
1076.258639,-17320.819043,-74617.701505,-1628.453072
1076.261195,-14804.118840,-75537.016103,5477.523971
1076.263751,18949.272115,-75843.454302,-10510.924376
1076.266307,-45152.562462,-71706.538613,1480.411884
1076.268863,37898.544230,-72319.415011,11991.336260
1076.271419,-36566.173535,-73545.167808,-5329.482782
1076.273975,3404.947333,-76303.111601,-2664.741391
1076.276531,-1776.494261,-77682.083497,-11103.089130
1076.279087,-25907.207970,-73085.510509,-5773.606348
1076.281643,10362.883188,-72779.072310,-1480.411884
1076.284199,-9474.636058,-72319.415011,1628.453072
1076.286755,-1480.411884,-73698.386908,444.123565
1076.289311,6809.894666,-75230.577904,1184.329507
1076.291867,-5477.523971,-75230.577904,5329.482782
1076.294423,-7550.100608,-76762.768900,-7402.059420
1076.296979,-14804.118840,-75077.358804,-4885.359217
1076.299535,1332.370696,-70940.443115,-4589.276840
1076.302091,6513.812290,-70327.566716,-1184.329507
1076.304647,148.041188,-73085.510509,-7105.977043
1076.307203,8142.265362,-75383.797003,1776.494261
1076.309759,1924.535449,-74924.139704,12879.583391
1076.312315,3849.070898,-72166.195912,21021.848753
1076.314871,592.164754,-75537.016103,5625.565159
1076.317427,-2220.617826,-77988.521696,-2812.782580
1076.319983,7846.182985,-74617.701505,-4589.276840
1076.322539,6513.812290,-69408.252119,2220.617826
1076.325104,6513.812290,-70021.128517,10066.800811
1076.327670,10066.800811,-74158.044206,13619.789333
1076.330235,-4589.276840,-76915.987999,3849.070898
1076.332801,6809.894666,-77375.645298,4145.153275
1076.335366,4589.276840,-74158.044206,4293.194464
1076.337932,888.247130,-72932.291410,7402.059420
1076.340497,3997.112087,-74617.701505,6069.688724
1076.343063,8586.388927,-72932.291410,13027.624579
1076.345628,6365.771101,-75690.235202,-10510.924376
1076.348194,-31088.649564,-75383.797003,13471.748144
1076.350759,75352.964896,-74311.263306,6513.812290
1076.353325,-60400.804867,-76609.549800,-5181.441594
1076.355890,11843.295072,-69255.033019,9622.677246
1076.358455,25759.166782,-73851.606007,7254.018232
1076.361021,-26499.372724,-74924.139704,17912.983796
1076.363586,38490.708984,-77528.864398,5477.523971
1076.366152,-22502.260637,-76609.549800,3701.029710
1076.368717,24426.796086,-74770.920605,3552.988522
1076.371283,2516.700203,-70634.004916,2812.782580
1076.373848,7550.100608,-71400.100414,11991.336260
1076.376414,10066.800811,-74464.482406,8586.388927
1076.378979,-11103.089130,-76456.330700,4737.318029
1076.381545,5033.400406,-77835.302597,-7105.977043
1076.384110,13323.706956,-75537.016103,2812.782580
1076.386676,6217.729913,-71859.757712,5625.565159
1076.389241,-11103.089130,-71553.319513,9918.759623
1076.391806,-9030.512492,-75843.454302,-4441.235652
1076.394372,-12435.459826,-74924.139704,-6809.894666
1076.396937,1332.370696,-74004.825107,-8438.347739
1076.399503,-14211.954086,-73238.729609,-11843.295072
1076.402068,-3108.864956,-73698.386908,592.164754
1076.404634,1036.288319,-72932.291410,-1628.453072
1076.407199,-6217.729913,-73085.510509,6217.729913
1076.409765,11251.130318,-75843.454302,4737.318029
1076.412330,-12139.377449,-78141.740796,-444.123565
1076.414896,-9030.512492,-75537.016103,-5329.482782
1076.417461,-6365.771101,-70940.443115,-6957.935855
1076.420026,-11547.212695,-69408.252119,-5329.482782
1076.422592,-6809.894666,-73391.948708,-0.000000
1076.425157,-13323.706956,-73391.948708,2368.659014
1076.427730,21762.054695,-73851.606007,9178.553681
1076.430303,-32421.020260,-77988.521696,-19097.313304
1076.432876,-63657.711012,-75996.673402,-296.082377
1076.435449,62177.299128,-72779.072310,13767.830521
1076.438021,-47373.180288,-73698.386908,-3997.112087
1076.440594,21614.013506,-75690.235202,-1036.288319
1076.443167,-3701.029710,-77988.521696,-9474.636058
1076.445740,-19393.395680,-74617.701505,-7402.059420
1076.448313,11695.253884,-74158.044206,-6069.688724
1076.450886,-19245.354492,-72319.415011,4145.153275
1076.453458,6661.853478,-73698.386908,4145.153275
1076.456031,2072.576638,-74311.263306,2664.741391
1076.458604,-11251.130318,-75843.454302,1184.329507
1076.461177,-8142.265362,-78141.740796,-10362.883188
1076.463750,-16136.489536,-74311.263306,-7550.100608
1076.466322,6513.812290,-70327.566716,-5921.647536
1076.468895,-148.041188,-71553.319513,2812.782580
1076.471468,8734.430116,-74004.825107,-3404.947333
1076.474041,-1184.329507,-75690.235202,5181.441594
1076.476614,14804.118840,-74617.701505,21021.848753
1076.479186,-6513.812290,-74464.482406,18209.066173
1076.481759,9770.718434,-76762.768900,2960.823768
1076.484332,-1332.370696,-77222.426198,-3997.112087
1076.486905,7402.059420,-72625.853210,-2368.659014
1076.489478,13619.789333,-69101.813920,5921.647536
1076.492050,1480.411884,-71859.757712,11547.212695
1076.494623,9326.594869,-74924.139704,10362.883188
1076.497196,-2960.823768,-77375.645298,3552.988522
1076.499769,6069.688724,-76456.330700,7105.977043
1076.502342,17468.860231,-75843.454302,5773.606348
1076.504915,11843.295072,-73238.729609,6365.771101
1076.507487,23834.631332,-73545.167808,4145.153275
1076.510060,4589.276840,-74158.044206,-7846.182985
1076.512633,-17024.736666,-74924.139704,18505.148550
1076.515206,66470.493592,-75537.016103,1776.494261
1076.517779,-51666.374752,-75690.235202,-5477.523971
1076.520351,47077.097911,-72625.853210,11991.336260
1076.522924,-26055.249158,-71553.319513,7105.977043
1076.525497,10510.924376,-72319.415011,10807.006753
1076.528070,27683.702231,-76762.768900,2812.782580
1076.530646,-26499.372724,-76149.892501,3256.906145
1076.533222,31680.814318,-74924.139704,3108.864956
1076.535799,-1480.411884,-71553.319513,7550.100608
1076.538375,15100.201217,-70940.443115,13471.748144
1076.540951,-3552.988522,-73851.606007,11695.253884
1076.543527,-4293.194464,-75383.797003,4293.194464
1076.546103,2072.576638,-76762.768900,-10362.883188
1076.548679,6365.771101,-74770.920605,3256.906145
1076.551256,13027.624579,-71553.319513,10510.924376
1076.553832,-26499.372724,-73391.948708,1480.411884
1076.556408,9622.677246,-76149.892501,-2072.576638
1076.558984,-17764.942608,-75537.016103,-6513.812290
1076.561560,4885.359217,-73698.386908,-7105.977043
1076.564137,-17024.736666,-73085.510509,-12435.459826
1076.566713,-14952.160028,-73391.948708,-888.247130
1076.569289,11103.089130,-73391.948708,2072.576638
1076.571865,-16136.489536,-73698.386908,4293.194464
1076.574441,10658.965565,-76303.111601,3849.070898
1076.577018,-14063.912898,-78448.178995,-1628.453072
1076.579594,-6365.771101,-75077.358804,-2812.782580
1076.582170,-11399.171507,-72012.976812,-6217.729913
1076.584746,-10658.965565,-73085.510509,-2516.700203
1076.587322,-2072.576638,-74004.825107,3849.070898
1076.589898,20429.683999,-74770.920605,12731.542202
1076.592475,-14952.160028,-76915.987999,-5033.400406
1076.595051,12583.501014,-78294.959896,3997.112087
1076.597627,-8438.347739,-75537.016103,-6513.812290
1076.600203,-15840.407159,-73698.386908,4589.276840
1076.602779,22206.178260,-73545.167808,-3849.070898
1076.605356,-30348.443622,-74004.825107,-6513.812290
1076.607932,1776.494261,-75077.358804,-6217.729913
1076.610508,-7994.224174,-74464.482406,-13027.624579
1076.613084,-12731.542202,-72932.291410,740.205942
1076.615660,13471.748144,-73698.386908,888.247130
1076.618237,-10955.047942,-72932.291410,7550.100608
1076.620813,5329.482782,-74617.701505,1184.329507
1076.623389,-15248.242405,-77528.864398,-10510.924376
1076.625965,-16284.530724,-75230.577904,-7105.977043
1076.628541,14063.912898,-72319.415011,-6513.812290
1076.631118,-5329.482782,-70174.347617,2664.741391
1076.633696,11399.171507,-72932.291410,-592.164754
1076.636275,-1776.494261,-74770.920605,9030.512492
1076.638854,18357.107362,-74770.920605,21614.013506
1076.641433,-4589.276840,-76609.549800,15840.407159
1076.644011,3997.112087,-78448.178995,2220.617826
1076.646590,2812.782580,-76609.549800,-6365.771101
1076.649169,6217.729913,-71093.662214,-1776.494261
1076.651748,8290.306550,-68948.594820,6809.894666
1076.654327,7698.141797,-71553.319513,11843.295072
1076.656905,2220.617826,-76303.111601,11103.089130
1076.659484,1036.288319,-76915.987999,6365.771101
1076.662063,1628.453072,-74770.920605,4737.318029
1076.664642,5181.441594,-73085.510509,2368.659014
1076.667220,12879.583391,-72012.976812,1628.453072
1076.669799,-12287.418637,-71859.757712,-9474.636058
1076.672378,-4145.153275,-72779.072310,9178.553681
1076.674957,18949.272115,-75230.577904,12731.542202
1076.677536,-1184.329507,-75843.454302,-888.247130
1076.680114,-5921.647536,-74770.920605,1924.535449
1076.682693,12287.418637,-72166.195912,12435.459826
1076.685272,8142.265362,-72932.291410,14656.077652
1076.687851,-3108.864956,-74004.825107,9918.759623
1076.690430,7698.141797,-77222.426198,7254.018232
1076.693008,4737.318029,-76609.549800,2072.576638
1076.695587,13323.706956,-73238.729609,3849.070898
1076.698166,12879.583391,-71706.538613,8882.471304
1076.700745,-3256.906145,-72472.634111,12435.459826
1076.703323,-2220.617826,-75690.235202,2220.617826
1076.705902,1924.535449,-76915.987999,-6365.771101
1076.708481,13323.706956,-74924.139704,3849.070898
1076.711060,8586.388927,-72472.634111,7105.977043
1076.713639,-19245.354492,-73085.510509,7105.977043
1076.716217,-1036.288319,-76762.768900,-1776.494261
1076.718796,-15248.242405,-75383.797003,-6069.688724
1076.721375,-592.164754,-73238.729609,-5477.523971
1076.723954,-11695.253884,-72932.291410,-12879.583391
1076.726532,-8586.388927,-73238.729609,-2220.617826
1076.729111,4145.153275,-73085.510509,-740.205942
1076.731690,-13767.830521,-73391.948708,5921.647536
1076.734269,13767.830521,-75843.454302,5033.400406
1076.736850,-10658.965565,-78907.836294,-1628.453072
1076.739430,-13323.706956,-74770.920605,-4293.194464
1076.742011,-9326.594869,-72012.976812,-10066.800811
1076.744592,-10955.047942,-69561.471218,-7994.224174
1076.747172,12583.501014,-70940.443115,-11695.253884
1076.749753,-27683.702231,-73391.948708,-1776.494261
1076.752334,13027.624579,-75077.358804,4293.194464
1076.754914,-5477.523971,-77528.864398,-12879.583391
1076.757495,-36122.049970,-76149.892501,-3997.112087
1076.760076,11547.212695,-72779.072310,-7994.224174
1076.762657,-12287.418637,-73085.510509,-9770.718434
1076.765237,-8438.347739,-75077.358804,-888.247130
1076.767818,-1184.329507,-74617.701505,-9474.636058
1076.770399,-18061.024985,-73851.606007,-3997.112087
1076.772979,10214.842000,-74464.482406,-3701.029710
1076.775560,-9474.636058,-73698.386908,8438.347739
1076.778141,296.082377,-73545.167808,3701.029710
1076.780721,-15544.324782,-76762.768900,-7402.059420
1076.783302,-10807.006753,-75996.673402,-6217.729913
1076.785883,296.082377,-75383.797003,-11547.212695
1076.788463,5181.441594,-70787.224015,-4145.153275
1076.791044,-3108.864956,-71859.757712,-7402.059420
1076.793625,9474.636058,-73085.510509,8438.347739
1076.796206,16284.530724,-74004.825107,20577.725188
1076.798786,-5477.523971,-74311.263306,19689.478057
1076.801367,12287.418637,-78601.398095,148.041188
1076.803948,-11399.171507,-78601.398095,-3404.947333
1076.806528,11547.212695,-73851.606007,-4885.359217
1076.809109,4737.318029,-68335.718422,1332.370696
1076.811690,8882.471304,-68948.594820,11399.171507
1076.814270,10066.800811,-74770.920605,11103.089130
1076.816851,-3108.864956,-77069.207099,4589.276840
1076.819432,-1036.288319,-77069.207099,8586.388927
1076.822013,2960.823768,-74004.825107,3849.070898
1076.824593,740.205942,-73391.948708,9178.553681
1076.827174,23390.507767,-72319.415011,2664.741391
1076.829755,-21910.095883,-72166.195912,740.205942
1076.832335,26055.249158,-73391.948708,4145.153275
1076.834916,18061.024985,-78294.959896,1036.288319
1076.837497,-13767.830521,-73238.729609,6365.771101
1076.840021,27239.578666,-71859.757712,8882.471304
1076.842545,-23242.466579,-71400.100414,13323.706956
1076.845069,23686.590144,-73698.386908,10510.924376
1076.847592,-7994.224174,-75230.577904,-1184.329507
1076.850116,9770.718434,-77069.207099,5625.565159
1076.852640,22502.260637,-74770.920605,1332.370696
1076.855164,-3701.029710,-71859.757712,12731.542202
1076.857688,5625.565159,-72472.634111,12879.583391
1076.860212,-7994.224174,-74617.701505,592.164754
1076.862736,19245.354492,-75843.454302,1332.370696
1076.865260,-2072.576638,-74464.482406,1480.411884
1076.867784,16136.489536,-72319.415011,12583.501014
1076.870308,-26203.290347,-75690.235202,-2516.700203
1076.872832,3552.988522,-75996.673402,-1036.288319
1076.875356,-3849.070898,-74770.920605,-8142.265362
1076.877880,-11843.295072,-72625.853210,-6069.688724
1076.880404,2960.823768,-73391.948708,-8290.306550
1076.882927,-21317.931130,-74311.263306,-3108.864956
1076.885451,9178.553681,-73545.167808,2812.782580
1076.887975,-12731.542202,-73085.510509,3256.906145
1076.890499,-9326.594869,-76915.987999,2516.700203
1076.893023,2516.700203,-77375.645298,-3552.988522
1076.895547,-16284.530724,-74158.044206,-6365.771101
1076.898071,-148.041188,-70327.566716,-11695.253884
1076.900595,-4145.153275,-69101.813920,-10362.883188
1076.903119,-5181.441594,-72012.976812,-6069.688724
1076.905643,-7846.182985,-74158.044206,4589.276840
1076.908167,-6809.894666,-78141.740796,592.164754
1076.910691,-1924.535449,-77682.083497,888.247130
1076.913215,-6513.812290,-75077.358804,-2516.700203
1076.915739,5033.400406,-73545.167808,-3849.070898
1076.918262,-7994.224174,-74617.701505,-5181.441594
1076.920786,-1184.329507,-74311.263306,-4145.153275
1076.923310,-9918.759623,-75230.577904,-1924.535449
1076.925834,1036.288319,-74158.044206,1036.288319
1076.928358,3701.029710,-74004.825107,7105.977043
1076.930882,-13323.706956,-74770.920605,7846.182985
1076.933406,-5773.606348,-75383.797003,-7994.224174
1076.935930,-17320.819043,-74924.139704,-10807.006753
1076.938454,7402.059420,-74158.044206,-8734.430116
1076.940992,-3256.906145,-73851.606007,-1628.453072
1076.943530,4737.318029,-73391.948708,-7550.100608
1076.946068,740.205942,-73545.167808,10510.924376
1076.948607,18653.189738,-71859.757712,27683.702231
1076.951145,148.041188,-74004.825107,20133.601622
1076.953683,6513.812290,-78601.398095,1628.453072
1076.956221,-2072.576638,-79367.493593,-4885.359217
1076.958759,1628.453072,-74004.825107,-5477.523971
1076.961297,6513.812290,-67569.622924,2812.782580
1076.963836,11103.089130,-70634.004916,10214.842000
1076.966374,4885.359217,-75230.577904,11695.253884
1076.968912,1628.453072,-77528.864398,8290.306550
1076.971450,9178.553681,-77682.083497,7254.018232
1076.973988,8290.306550,-75996.673402,3256.906145
1076.976527,22058.137072,-74311.263306,740.205942
1076.979065,-18061.024985,-73391.948708,-1184.329507
1076.981603,9326.594869,-70480.785816,15840.407159
1076.984141,45892.768404,-76303.111601,9178.553681
1076.986679,-30940.608376,-77835.302597,-2072.576638
1076.989217,43820.191766,-72932.291410,7254.018232
1076.991756,-4441.235652,-72932.291410,4737.318029
1076.994294,1184.329507,-71093.662214,18357.107362
1076.996832,21910.095883,-75383.797003,6809.894666
1076.999370,-17172.777854,-75690.235202,10807.006753
1077.001908,22354.219448,-75996.673402,4145.153275
1077.004446,1184.329507,-73698.386908,4737.318029
1077.006985,3849.070898,-72625.853210,9918.759623
1077.009523,-592.164754,-73085.510509,1332.370696
1077.012061,5181.441594,-74158.044206,1776.494261
1077.014599,3108.864956,-74464.482406,3997.112087
1077.017137,12139.377449,-73545.167808,11251.130318
1077.019676,-22502.260637,-75383.797003,-740.205942
1077.022225,9770.718434,-76149.892501,-444.123565
1077.024774,-12583.501014,-74924.139704,-9030.512492
1077.027323,-6069.688724,-71859.757712,-5329.482782
1077.029873,-1776.494261,-72779.072310,-10807.006753
1077.032422,-16136.489536,-73698.386908,-3997.112087
1077.034971,7698.141797,-73698.386908,592.164754
1077.037521,-12139.377449,-73391.948708,4293.194464
1077.040070,10658.965565,-76149.892501,4589.276840
1077.042619,-4737.318029,-77069.207099,-2664.741391
1077.045168,-8586.388927,-74311.263306,-7254.018232
1077.047718,-5625.565159,-74311.263306,-4441.235652
1077.050267,-14359.995275,-72319.415011,-5477.523971
1077.052816,1924.535449,-71093.662214,9326.594869
1077.055366,13323.706956,-74158.044206,3701.029710
1077.057915,-5625.565159,-76609.549800,-2812.782580
1077.060464,-11103.089130,-78141.740796,-1776.494261
1077.063013,2664.741391,-74617.701505,-6069.688724
1077.065563,-2664.741391,-72472.634111,-7254.018232
1077.068112,-7550.100608,-74770.920605,-296.082377
1077.070661,-1036.288319,-75383.797003,-1776.494261
1077.073211,-12139.377449,-75383.797003,-6217.729913
1077.075760,2664.741391,-72472.634111,-296.082377
1077.078309,888.247130,-75230.577904,6513.812290
1077.080858,-12879.583391,-76149.892501,-888.247130
1077.083408,-5181.441594,-74770.920605,-5625.565159
1077.085957,-10362.883188,-74158.044206,-6069.688724
1077.088506,5033.400406,-73545.167808,-3701.029710
1077.091055,-3849.070898,-74004.825107,-6069.688724
1077.093605,6365.771101,-73851.606007,-3997.112087
1077.096154,740.205942,-73391.948708,11251.130318
1077.098703,13027.624579,-70940.443115,25167.002028
1077.101253,3256.906145,-76456.330700,10658.965565
1077.103802,-1480.411884,-79214.274493,-296.082377
1077.106351,7550.100608,-77222.426198,-7550.100608
1077.108900,-2664.741391,-71093.662214,-2516.700203
1077.111450,15248.242405,-68642.156621,4441.235652
1077.113999,3997.112087,-72472.634111,11399.171507
1077.116548,5033.400406,-77222.426198,10807.006753
1077.119098,7698.141797,-76762.768900,7402.059420
1077.121647,5181.441594,-76915.987999,15100.201217
1077.124204,-2072.576638,-77528.864398,5181.441594
1077.126761,22798.343014,-72932.291410,7846.182985
1077.129318,5921.647536,-71859.757712,2664.741391
1077.131875,-5329.482782,-73545.167808,14952.160028
1077.134433,34345.555709,-74924.139704,7994.224174
1077.136990,-22354.219448,-75383.797003,888.247130
1077.139547,15248.242405,-71859.757712,9918.759623
1077.142104,3404.947333,-71706.538613,10214.842000
1077.144661,-2960.823768,-72319.415011,15100.201217
1077.147218,18653.189738,-74617.701505,5181.441594
1077.149775,-3256.906145,-74617.701505,4441.235652
1077.152333,12287.418637,-76609.549800,2516.700203
1077.154890,148.041188,-72779.072310,3997.112087
1077.157447,148.041188,-72625.853210,-1332.370696
1077.160004,16580.613101,-73085.510509,1924.535449
1077.162561,2516.700203,-72779.072310,7402.059420
1077.165118,6661.853478,-73391.948708,11991.336260
1077.167675,-22502.260637,-77222.426198,-4441.235652
1077.170233,9030.512492,-77222.426198,-3701.029710
1077.172790,-5181.441594,-74770.920605,-9326.594869
1077.175347,-9918.759623,-70940.443115,-6661.853478
1077.177904,1924.535449,-73391.948708,-6957.935855
1077.180461,-17616.901420,-73391.948708,-3701.029710
1077.183018,3552.988522,-73545.167808,-0.000000
1077.185575,-9770.718434,-74311.263306,4885.359217
1077.188133,7698.141797,-75230.577904,4293.194464
1077.190690,-5921.647536,-77375.645298,-1480.411884
1077.193247,-22946.384202,-74924.139704,-6957.935855
1077.195804,-0.000000,-72779.072310,-9178.553681
1077.198361,-13471.748144,-72625.853210,-10066.800811
1077.200918,10955.047942,-72779.072310,7105.977043
1077.203475,-296.082377,-73851.606007,296.082377
1077.206032,-4145.153275,-74770.920605,-9030.512492
1077.208590,-7846.182985,-79367.493593,-444.123565
1077.211147,-13619.789333,-72319.415011,-10807.006753
1077.213704,-12287.418637,-72166.195912,-8586.388927
1077.216261,592.164754,-71859.757712,-4589.276840
1077.218818,-6069.688724,-73238.729609,-10510.924376
1077.221375,-1924.535449,-73545.167808,-592.164754
1077.223932,2960.823768,-74158.044206,2664.741391
1077.226496,-22354.219448,-75383.797003,1776.494261
1077.229059,-2516.700203,-75230.577904,-1480.411884
1077.231623,-7402.059420,-73391.948708,-8142.265362
1077.234186,2812.782580,-72012.976812,-1924.535449
1077.236750,444.123565,-73698.386908,-4737.318029
1077.239313,-1924.535449,-75537.016103,-6809.894666
1077.241877,2516.700203,-75383.797003,8290.306550
1077.244440,14952.160028,-71706.538613,26203.290347
1077.247003,2072.576638,-72625.853210,22206.178260
1077.249567,4737.318029,-78601.398095,2220.617826
1077.252130,444.123565,-77682.083497,-6661.853478
1077.254694,3552.988522,-72625.853210,-4589.276840
1077.257257,7254.018232,-68488.937521,1924.535449
1077.259821,7698.141797,-71246.881314,11251.130318
1077.262384,11695.253884,-75537.016103,9030.512492
1077.264947,-9178.553681,-76762.768900,8734.430116
1077.267511,3997.112087,-76303.111601,10807.006753
1077.270074,11695.253884,-75383.797003,6069.688724
1077.272638,12731.542202,-75077.358804,-3552.988522
1077.275201,-1924.535449,-71400.100414,10214.842000
1077.277765,28127.825796,-72932.291410,2812.782580
1077.280328,-25907.207970,-76456.330700,6365.771101
1077.282892,19393.395680,-77375.645298,4885.359217
1077.285455,-6069.688724,-75537.016103,5773.606348
1077.288018,-3849.070898,-72625.853210,12583.501014
1077.290582,20281.642811,-71093.662214,7698.141797
1077.293145,-5625.565159,-72932.291410,11695.253884
1077.295709,20429.683999,-75843.454302,3997.112087
1077.298272,-7402.059420,-75537.016103,3849.070898
1077.300836,3849.070898,-75537.016103,2664.741391
1077.303399,1480.411884,-74311.263306,-1480.411884
1077.305963,13619.789333,-71706.538613,9474.636058
1077.308526,2516.700203,-71553.319513,10066.800811
1077.311089,-12879.583391,-74004.825107,12139.377449
1077.313653,-7994.224174,-79214.274493,-8438.347739
1077.316216,-10214.842000,-76303.111601,-8882.471304
1077.318780,3849.070898,-73391.948708,-8882.471304
1077.321343,-16580.613101,-71093.662214,-7550.100608
1077.323907,4441.235652,-72625.853210,-3849.070898
1077.326470,-8882.471304,-74924.139704,-2220.617826
1077.329039,1036.288319,-74004.825107,6069.688724
1077.331607,1036.288319,-75537.016103,-444.123565
1077.334176,-6957.935855,-76456.330700,4589.276840
1077.336745,296.082377,-75383.797003,-3997.112087
1077.339314,-20577.725188,-72166.195912,-7846.182985
1077.341882,8438.347739,-69561.471218,-15544.324782
1077.344451,-4441.235652,-74464.482406,-7698.141797
1077.347020,-6513.812290,-73085.510509,5773.606348
1077.349588,27535.661042,-76609.549800,-1924.535449
1077.352157,-39378.956114,-78141.740796,-2664.741391
1077.354726,25907.207970,-75383.797003,-5181.441594
1077.357294,-19393.395680,-74158.044206,-10362.883188
1077.359863,-1776.494261,-73545.167808,-3108.864956
1077.362432,15988.448347,-74158.044206,-11991.336260
1077.365001,-22058.137072,-74158.044206,444.123565
1077.367569,13175.665768,-73545.167808,1628.453072
1077.370138,-27535.661042,-76149.892501,1480.411884
1077.372707,148.041188,-76149.892501,444.123565
1077.375275,-12139.377449,-74464.482406,-5329.482782
1077.377844,6661.853478,-71400.100414,-1776.494261
1077.380413,-444.123565,-73391.948708,-3552.988522
1077.382982,-1480.411884,-75383.797003,-5625.565159
1077.385550,3701.029710,-75537.016103,6069.688724
1077.388119,14211.954086,-72625.853210,24574.837274
1077.390688,5329.482782,-72779.072310,22650.301825
1077.393256,5181.441594,-77528.864398,5329.482782
1077.395825,-888.247130,-78141.740796,-5625.565159
1077.398394,1184.329507,-74464.482406,-3404.947333
1077.400962,8882.471304,-69561.471218,2072.576638
1077.403531,7698.141797,-71246.881314,10658.965565
1077.406100,6513.812290,-74924.139704,9622.677246
1077.408669,3404.947333,-78141.740796,9030.512492
1077.411237,12287.418637,-75843.454302,5773.606348
1077.413806,14359.995275,-75996.673402,148.041188
1077.416375,-3404.947333,-74770.920605,-2664.741391
1077.418943,7994.224174,-71246.881314,3552.988522
1077.421512,5329.482782,-71553.319513,7698.141797
1077.424081,-1924.535449,-75996.673402,7698.141797
1077.426649,7105.977043,-77682.083497,6069.688724
1077.429218,12731.542202,-75996.673402,8142.265362
1077.431791,4885.359217,-73391.948708,10658.965565
1077.434364,11251.130318,-72625.853210,14359.995275
1077.436936,2072.576638,-72932.291410,9622.677246
1077.439509,2516.700203,-74924.139704,6217.729913
1077.442082,-296.082377,-75690.235202,1776.494261
1077.444655,-2812.782580,-75537.016103,-2516.700203
1077.447228,19985.560434,-72319.415011,3701.029710
1077.449800,-1776.494261,-71553.319513,8586.388927
1077.452373,13471.748144,-71246.881314,18061.024985
1077.454946,-30052.361245,-76609.549800,-3849.070898
1077.457519,296.082377,-77835.302597,-7402.059420
1077.460091,740.205942,-75690.235202,-12139.377449
1077.462664,-14804.118840,-70787.224015,-9474.636058
1077.465237,5625.565159,-71706.538613,-6513.812290
1077.467810,-19245.354492,-72319.415011,-2072.576638
1077.470382,3108.864956,-74464.482406,3701.029710
1077.472955,-4589.276840,-75383.797003,5773.606348
1077.475528,7698.141797,-76609.549800,2516.700203
1077.478101,-4589.276840,-76762.768900,-2664.741391
1077.480673,-8438.347739,-76303.111601,-2368.659014
1077.483246,-14508.036463,-73698.386908,-6661.853478
1077.485819,-6217.729913,-72166.195912,6069.688724
1077.488392,11103.089130,-72625.853210,2220.617826
1077.490964,-1628.453072,-74617.701505,-148.041188
1077.493537,-2960.823768,-79061.055394,-2220.617826
1077.496110,-11251.130318,-74004.825107,-8142.265362
1077.498683,-2220.617826,-73238.729609,-6957.935855
1077.501256,-9622.677246,-72779.072310,-1776.494261
1077.503828,1480.411884,-74158.044206,-1332.370696
1077.506401,-4885.359217,-74924.139704,-2220.617826
1077.508974,-296.082377,-74004.825107,-1184.329507
1077.511547,-17024.736666,-75537.016103,-740.205942
1077.514119,-8882.471304,-75537.016103,-2960.823768
1077.516692,-3997.112087,-73698.386908,-4589.276840
1077.519265,3552.988522,-71246.881314,-592.164754
1077.521838,-5921.647536,-72932.291410,-4441.235652
1077.524410,4145.153275,-75077.358804,-5773.606348
1077.526983,-2664.741391,-75230.577904,4293.194464
1077.529556,17468.860231,-72166.195912,22946.384202
1077.532129,2516.700203,-73698.386908,25018.960840
1077.534703,7698.141797,-77528.864398,4589.276840
1077.537277,-0.000000,-77222.426198,-4885.359217
1077.539851,3849.070898,-72932.291410,-3552.988522
1077.542425,11399.171507,-70480.785816,1332.370696
1077.545000,5181.441594,-71400.100414,10362.883188
1077.547574,17320.819043,-74158.044206,10510.924376
1077.550148,6513.812290,-76303.111601,8438.347739
1077.552722,11695.253884,-75996.673402,10066.800811
1077.555297,20725.766376,-76303.111601,5477.523971
1077.557871,-5477.523971,-73238.729609,-4441.235652
1077.560445,14211.954086,-69101.813920,7550.100608
1077.563019,3404.947333,-72779.072310,5773.606348
1077.565594,-17468.860231,-74617.701505,9474.636058
1077.568168,20429.683999,-77222.426198,6809.894666
1077.570742,-9474.636058,-76149.892501,8142.265362
1077.573316,10807.006753,-73391.948708,14656.077652
1077.575890,11103.089130,-73238.729609,12139.377449
1077.578465,4293.194464,-72932.291410,9030.512492
1077.581039,2516.700203,-75690.235202,4885.359217
1077.583613,-5773.606348,-76762.768900,-2220.617826
1077.586187,8290.306550,-75996.673402,-2220.617826
1077.588762,18653.189738,-72166.195912,10510.924376
1077.591336,12879.583391,-71400.100414,18949.272115
1077.593910,-31680.814318,-74004.825107,9474.636058
1077.596484,7402.059420,-78754.617194,-2664.741391
1077.599059,-15396.283594,-76915.987999,-14359.995275
1077.601633,6217.729913,-73851.606007,-10658.965565
1077.604207,-12139.377449,-71553.319513,-13323.706956
1077.606781,-3997.112087,-71859.757712,-148.041188
1077.609355,-6513.812290,-73391.948708,-444.123565
1077.611930,-7846.182985,-74924.139704,7254.018232
1077.614504,8438.347739,-77528.864398,3849.070898
1077.617078,-11399.171507,-77222.426198,1924.535449
1077.619652,296.082377,-73851.606007,-7698.141797
1077.622227,-17468.860231,-72625.853210,-2812.782580
1077.624801,18061.024985,-70174.347617,-10510.924376
1077.627375,-41599.573940,-72625.853210,-4145.153275
1077.629949,-6957.935855,-73698.386908,14952.160028
1077.632524,24722.878463,-80133.589091,1332.370696
1077.635098,-45152.562462,-76915.987999,592.164754
1077.637673,44560.397708,-74770.920605,-7846.182985
1077.640249,-43376.068201,-74004.825107,-3997.112087
1077.642824,20133.601622,-73545.167808,1776.494261
1077.645400,-7254.018232,-74464.482406,-5921.647536
1077.647975,-9030.512492,-75077.358804,3256.906145
1077.650551,7105.977043,-75843.454302,-9030.512492
1077.653127,-28423.908173,-75077.358804,-3552.988522
1077.655702,7846.182985,-73698.386908,-2368.659014
1077.658278,1036.288319,-71859.757712,148.041188
1077.660853,-5033.400406,-72166.195912,-1924.535449
1077.663429,9918.759623,-75537.016103,-6513.812290
1077.666004,-5625.565159,-75690.235202,5625.565159
1077.668580,14952.160028,-71859.757712,20429.683999
1077.671155,2960.823768,-75537.016103,13471.748144
1077.673731,3108.864956,-76303.111601,6513.812290
1077.676306,4145.153275,-77375.645298,-2960.823768
1077.678882,592.164754,-71859.757712,-2516.700203
1077.681457,13767.830521,-70480.785816,1924.535449
1077.684033,6069.688724,-71246.881314,8142.265362
1077.686608,15396.283594,-74158.044206,6069.688724
1077.689184,-1332.370696,-77835.302597,11399.171507
1077.691759,-888.247130,-76456.330700,8882.471304
1077.694335,13323.706956,-75996.673402,7254.018232
1077.696910,6513.812290,-73698.386908,-1332.370696
1077.699486,-17764.942608,-71553.319513,7698.141797
1077.702062,25759.166782,-70787.224015,11399.171507
1077.704637,-21465.972318,-74311.263306,8882.471304
1077.707213,2812.782580,-76456.330700,7846.182985
1077.709788,24130.713709,-76456.330700,9326.594869
1077.712364,-3256.906145,-72166.195912,14804.118840
1077.714939,22206.178260,-73085.510509,10807.006753
1077.717515,-4737.318029,-74004.825107,8290.306550
1077.720090,-0.000000,-76762.768900,2368.659014
1077.722666,-2220.617826,-75690.235202,-9030.512492
1077.725241,16136.489536,-71859.757712,6809.894666
1077.727817,5329.482782,-71859.757712,10214.842000
1077.730392,-6957.935855,-71859.757712,20725.766376
1077.732968,-12139.377449,-78448.178995,-4441.235652
1077.735543,-6513.812290,-77835.302597,-7254.018232
1077.738119,2516.700203,-75996.673402,-11695.253884
1077.740696,-14656.077652,-71246.881314,-13175.665768
1077.743272,-1184.329507,-71859.757712,-7994.224174
1077.745849,-8734.430116,-72472.634111,-2960.823768
1077.748426,-2960.823768,-73391.948708,4589.276840
1077.751003,148.041188,-75996.673402,4293.194464
1077.753579,888.247130,-78754.617194,4441.235652
1077.756156,-4589.276840,-78907.836294,-1628.453072
1077.758733,2368.659014,-72319.415011,-10510.924376
1077.761310,-12435.459826,-72319.415011,-16432.571912
1077.763886,-9918.759623,-70174.347617,2220.617826
1077.766463,7105.977043,-72932.291410,8290.306550
1077.769040,-4589.276840,-77988.521696,740.205942
1077.771617,-12583.501014,-79061.055394,-6069.688724
1077.774193,3997.112087,-75690.235202,-5329.482782
1077.776770,-13175.665768,-73851.606007,-7105.977043
1077.779347,888.247130,-70940.443115,-2368.659014
1077.781924,9622.677246,-73391.948708,740.205942
1077.784500,-16284.530724,-74617.701505,1332.370696
1077.787077,-9918.759623,-76149.892501,-12287.418637
1077.789654,-21021.848753,-75996.673402,-7105.977043
1077.792231,6217.729913,-73391.948708,-3256.906145
1077.794807,4441.235652,-70940.443115,2072.576638
1077.797384,-4145.153275,-72319.415011,-3256.906145
1077.799961,8882.471304,-74311.263306,-5625.565159
1077.802538,2664.741391,-75537.016103,8142.265362
1077.805114,9178.553681,-72319.415011,16580.613101
1077.807691,5329.482782,-75230.577904,11695.253884
1077.810268,1776.494261,-76915.987999,6365.771101
1077.812845,6809.894666,-75537.016103,-2072.576638
1077.815421,-592.164754,-70940.443115,-2368.659014
1077.817998,14656.077652,-70787.224015,3108.864956
1077.820575,5625.565159,-73851.606007,8142.265362
1077.823152,2516.700203,-75690.235202,7846.182985
1077.825728,3701.029710,-75230.577904,3256.906145
1077.828305,-7254.018232,-75690.235202,-1184.329507
1077.830882,-3256.906145,-75843.454302,592.164754
1077.833459,27239.578666,-71553.319513,4293.194464
1077.836035,-11399.171507,-70480.785816,-3404.947333
1077.838612,2812.782580,-70634.004916,6217.729913
1077.841189,30052.361245,-76915.987999,6957.935855
1077.843765,-3108.864956,-77222.426198,11843.295072
1077.846342,24278.754898,-74770.920605,14656.077652
1077.848918,4441.235652,-73698.386908,13471.748144
1077.851495,6809.894666,-73238.729609,10955.047942
1077.854071,2664.741391,-74311.263306,740.205942
1077.856648,-6661.853478,-75843.454302,-3997.112087
1077.859224,16432.571912,-75383.797003,-1776.494261
1077.861800,5329.482782,-71859.757712,7254.018232
1077.864377,10214.842000,-71093.662214,19689.478057
1077.866953,-23982.672521,-75996.673402,4293.194464
1077.869530,4293.194464,-78141.740796,-3108.864956
1077.872106,-10807.006753,-76609.549800,-11251.130318
1077.874683,-1480.411884,-73238.729609,-10955.047942
1077.877259,-6365.771101,-72166.195912,-11103.089130
1077.879836,-16876.695478,-72472.634111,-2072.576638
1077.882412,3849.070898,-72779.072310,2220.617826
1077.884989,-8142.265362,-74770.920605,6365.771101
1077.887565,5181.441594,-75690.235202,5329.482782
1077.890142,-12583.501014,-77528.864398,-0.000000
1077.892718,-11103.089130,-75383.797003,-9030.512492
1077.895295,-19985.560434,-72319.415011,-12583.501014
1077.897871,-2812.782580,-71859.757712,1628.453072
1077.900447,5921.647536,-70634.004916,6365.771101
1077.903024,-7254.018232,-77528.864398,1480.411884
1077.905600,-14211.954086,-79061.055394,-8142.265362
1077.908177,-5329.482782,-75690.235202,-7105.977043
1077.910753,-6661.853478,-74004.825107,-7254.018232
1077.913330,-5477.523971,-71246.881314,-1628.453072
1077.915906,5921.647536,-73545.167808,-1332.370696
1077.918483,-12287.418637,-75537.016103,-148.041188
1077.921059,-10214.842000,-76915.987999,-10658.965565
1077.923636,-12287.418637,-75230.577904,-7402.059420
1077.926212,2072.576638,-74158.044206,-1628.453072
1077.928789,8438.347739,-71400.100414,3108.864956
1077.931365,-8290.306550,-72319.415011,-5773.606348
1077.933941,11695.253884,-74464.482406,-0.000000
1077.936518,10658.965565,-75383.797003,8586.388927
1077.939094,3256.906145,-73851.606007,14952.160028
1077.941671,10807.006753,-75690.235202,9326.594869
1077.944247,-3849.070898,-76915.987999,3997.112087
1077.946824,9770.718434,-75230.577904,592.164754
1077.949400,148.041188,-71400.100414,-2220.617826
1077.951976,13323.706956,-70480.785816,3849.070898
1077.954553,13619.789333,-73085.510509,6661.853478
1077.957129,1036.288319,-72779.072310,2812.782580
1077.959706,10658.965565,-74464.482406,9178.553681
1077.962282,9178.553681,-76149.892501,3849.070898
1077.964858,-15988.448347,-75383.797003,-3108.864956
1077.967435,9918.759623,-71553.319513,13027.624579
1077.970011,24722.878463,-70021.128517,7254.018232
1077.972587,-10510.924376,-74924.139704,6069.688724
1077.975164,11547.212695,-75690.235202,10807.006753
1077.977740,8734.430116,-75230.577904,4441.235652
1077.980316,4885.359217,-73085.510509,12731.542202
1077.982893,18801.230927,-73085.510509,12435.459826
1077.985469,-7846.182985,-73085.510509,10510.924376
1077.988046,5181.441594,-75537.016103,-148.041188
1077.990622,-7698.141797,-76915.987999,-5181.441594
1077.993198,12731.542202,-72472.634111,5477.523971
1077.995775,13471.748144,-72779.072310,10510.924376
1077.998351,-21910.095883,-72166.195912,15544.324782
1078.000927,592.164754,-77988.521696,-1776.494261
1078.003504,-17468.860231,-75843.454302,-8142.265362
1078.006080,5625.565159,-74617.701505,-12287.418637
1078.008656,-17172.777854,-72319.415011,-14359.995275
1078.011233,-7994.224174,-72932.291410,-5329.482782
1078.013809,-1480.411884,-73085.510509,-2960.823768
1078.016386,-10510.924376,-72779.072310,4441.235652
1078.018962,8882.471304,-74770.920605,6957.935855
1078.021538,888.247130,-76456.330700,2072.576638
1078.024115,-5329.482782,-78141.740796,2960.823768
1078.026691,-15988.448347,-75077.358804,-4441.235652
1078.029267,888.247130,-72472.634111,-5181.441594
1078.031844,6365.771101,-70634.004916,4885.359217
1078.034420,-3849.070898,-73085.510509,-5181.441594
1078.036997,-10214.842000,-77222.426198,-7402.059420
1078.039573,-11843.295072,-76762.768900,-6513.812290
1078.042149,-15544.324782,-72625.853210,-9178.553681
1078.044726,-3108.864956,-71093.662214,-3404.947333
1078.047302,1628.453072,-70940.443115,-2220.617826
1078.049878,-14804.118840,-75690.235202,296.082377
1078.052455,-7105.977043,-76609.549800,-14359.995275
1078.055031,-17912.983796,-75230.577904,-8438.347739
1078.057608,7105.977043,-74004.825107,-3404.947333
1078.060184,2368.659014,-71859.757712,7105.977043
1078.062761,148.041188,-72779.072310,-3997.112087
1078.065337,3404.947333,-72779.072310,592.164754
1078.067914,7846.182985,-74311.263306,8142.265362
1078.070490,8882.471304,-73238.729609,11991.336260
1078.073067,3404.947333,-77222.426198,5181.441594
1078.075643,2516.700203,-77069.207099,2368.659014
1078.078220,4441.235652,-73851.606007,-148.041188
1078.080796,2664.741391,-69714.690318,-1184.329507
1078.083373,10955.047942,-70327.566716,3849.070898
1078.085949,10807.006753,-72625.853210,5329.482782
1078.088525,-4441.235652,-76456.330700,4737.318029
1078.091102,-3404.947333,-78141.740796,15248.242405
1078.093678,14656.077652,-77069.207099,10955.047942
1078.096255,2220.617826,-75383.797003,-5921.647536
1078.098831,-13027.624579,-72779.072310,1036.288319
1078.101408,21317.931130,-70634.004916,10658.965565
1078.103984,-12879.583391,-74617.701505,9918.759623
1078.106561,10214.842000,-76303.111601,11695.253884
1078.109137,17320.819043,-75843.454302,8142.265362
1078.111714,6513.812290,-73851.606007,9622.677246
1078.114290,9178.553681,-74158.044206,9622.677246
1078.116867,740.205942,-73085.510509,7550.100608
1078.119443,-2368.659014,-74770.920605,-2368.659014
1078.122020,11103.089130,-74770.920605,-5033.400406
1078.124596,9178.553681,-73238.729609,5329.482782
1078.127173,10362.883188,-71246.881314,14359.995275
1078.129749,-26055.249158,-75537.016103,2516.700203
1078.132325,12731.542202,-77222.426198,444.123565
1078.134900,-18061.024985,-75690.235202,-9622.677246
1078.137476,3404.947333,-72625.853210,-8438.347739
1078.140052,-10066.800811,-72625.853210,-13471.748144
1078.142627,-10658.965565,-73698.386908,-2516.700203
1078.145203,-2516.700203,-74158.044206,-444.123565
1078.147778,-10214.842000,-73698.386908,5477.523971
1078.150354,5033.400406,-75230.577904,6957.935855
1078.152930,-8586.388927,-75690.235202,-888.247130
1078.155505,-9622.677246,-75996.673402,740.205942
1078.158081,148.041188,-74004.825107,-12731.542202
1078.160657,-17912.983796,-70174.347617,-5181.441594
1078.163232,-296.082377,-73085.510509,12583.501014
1078.165808,-2220.617826,-76149.892501,-2812.782580
1078.168384,-14359.995275,-80593.246390,-2812.782580
1078.170959,-6661.853478,-77069.207099,-5033.400406
1078.173535,-3256.906145,-71553.319513,-7698.141797
1078.176111,-4441.235652,-71093.662214,-148.041188
1078.178686,2072.576638,-73851.606007,3256.906145
1078.181262,-21762.054695,-76456.330700,-5773.606348
1078.183837,-8734.430116,-75996.673402,-7105.977043
1078.186413,-1480.411884,-74617.701505,-6069.688724
1078.188989,1184.329507,-72625.853210,4441.235652
1078.191564,-148.041188,-73545.167808,-2072.576638
1078.194140,9918.759623,-73238.729609,2368.659014
1078.196716,1776.494261,-74158.044206,9030.512492
1078.199291,14063.912898,-73391.948708,17024.736666
1078.201867,6365.771101,-76609.549800,11251.130318
1078.204443,-0.000000,-77069.207099,592.164754
1078.207018,5329.482782,-75383.797003,-444.123565
1078.209594,1184.329507,-70327.566716,1776.494261
1078.212170,11251.130318,-70021.128517,4885.359217
1078.214745,3701.029710,-73698.386908,6809.894666
1078.217321,-2368.659014,-74311.263306,7402.059420
1078.219896,-9918.759623,-77835.302597,13767.830521
1078.222472,4293.194464,-74924.139704,6809.894666
1078.225048,16432.571912,-75230.577904,-3404.947333
1078.227623,-18209.066173,-73391.948708,-2516.700203
1078.230199,27387.619854,-72166.195912,12731.542202
1078.232775,592.164754,-74770.920605,11103.089130
1078.235350,8882.471304,-75537.016103,13915.871710
1078.237924,12583.501014,-76762.768900,7994.224174
1078.240499,1480.411884,-73545.167808,10955.047942
1078.243074,14508.036463,-72779.072310,9770.718434
1078.245649,-9918.759623,-73238.729609,6217.729913
1078.248224,1332.370696,-75383.797003,-2812.782580
1078.250799,19393.395680,-74464.482406,592.164754
1078.253374,-3849.070898,-72932.291410,5033.400406
1078.255949,12139.377449,-71859.757712,15544.324782
1078.258524,-26647.413912,-75537.016103,-1036.288319
1078.261099,-4441.235652,-77222.426198,-2220.617826
1078.263674,-1628.453072,-75996.673402,-9030.512492
1078.266249,-10807.006753,-71859.757712,-8586.388927
1078.268824,444.123565,-72932.291410,-9622.677246
1078.271398,-17172.777854,-74158.044206,-5329.482782
1078.273973,-148.041188,-74004.825107,888.247130
1078.276548,-9178.553681,-74158.044206,3997.112087
1078.279123,-10955.047942,-75537.016103,6661.853478
1078.281698,5329.482782,-75077.358804,-3701.029710
1078.284273,-29904.320057,-74464.482406,-14656.077652
1078.286848,-21021.848753,-71400.100414,1628.453072
1078.289423,43524.109390,-71553.319513,-592.164754
1078.291998,-58772.351795,-71859.757712,-12287.418637
1078.294573,38194.626607,-73545.167808,-1036.288319
1078.297148,-29608.237680,-78448.178995,-10214.842000
1078.299723,-41303.491564,-75077.358804,1332.370696
1078.302298,37010.297100,-72319.415011,-1480.411884
1078.304872,-31532.773129,-70940.443115,-148.041188
1078.307447,3404.947333,-75690.235202,-3552.988522
1078.310022,-15840.407159,-76456.330700,-11547.212695
1078.312597,-12879.583391,-75230.577904,-8734.430116
1078.315172,15100.201217,-73085.510509,-3256.906145
1078.317747,-13175.665768,-72472.634111,3404.947333
1078.320322,11991.336260,-73698.386908,-148.041188
1078.322897,-2812.782580,-73851.606007,6217.729913
1078.325472,17912.983796,-71859.757712,20281.642811
1078.328047,5625.565159,-75230.577904,13175.665768
1078.330622,-1628.453072,-77835.302597,3404.947333
1078.333197,5625.565159,-77528.864398,-2812.782580
1078.335771,-2664.741391,-73391.948708,2368.659014
1078.338346,13915.871710,-69561.471218,6069.688724
1078.340921,5181.441594,-71553.319513,8586.388927
1078.343495,5625.565159,-73391.948708,5477.523971
1078.346070,-11251.130318,-77988.521696,13027.624579
1078.348644,9770.718434,-76149.892501,14508.036463
1078.351219,-740.205942,-75690.235202,-2960.823768
1078.353794,-444.123565,-74158.044206,11399.171507
1078.356368,24130.713709,-69867.909418,10066.800811
1078.358943,-8290.306550,-73545.167808,8586.388927
1078.361517,15100.201217,-75230.577904,14063.912898
1078.364092,2664.741391,-76303.111601,8734.430116
1078.366666,9178.553681,-74924.139704,15100.201217
1078.369241,6957.935855,-73698.386908,10214.842000
1078.371816,-2812.782580,-71706.538613,9474.636058
1078.374390,7550.100608,-74770.920605,-2960.823768
1078.376965,14656.077652,-73238.729609,-0.000000
1078.379539,-2812.782580,-74004.825107,7105.977043
1078.382114,2516.700203,-73851.606007,16580.613101
1078.384689,-24130.713709,-76456.330700,-740.205942
1078.387263,3997.112087,-75690.235202,444.123565
1078.389838,-8290.306550,-75537.016103,-5921.647536
1078.392412,-5329.482782,-72472.634111,-6809.894666
1078.394987,-1480.411884,-74158.044206,-8882.471304
1078.397562,-15840.407159,-74158.044206,-5477.523971
1078.400136,-888.247130,-74617.701505,2368.659014
1078.402711,-3256.906145,-74464.482406,4293.194464
1078.405285,1036.288319,-77528.864398,9474.636058
1078.407860,4293.194464,-75843.454302,296.082377
1078.410434,1628.453072,-73238.729609,-9474.636058
1078.413009,-13471.748144,-73391.948708,-11251.130318
1078.415584,9178.553681,-73085.510509,8586.388927
1078.418158,-5329.482782,-75230.577904,-0.000000
1078.420733,-10510.924376,-75077.358804,-3997.112087
1078.423307,10510.924376,-78907.836294,-5773.606348
1078.425882,-21317.931130,-76609.549800,1036.288319
1078.428457,11695.253884,-72779.072310,-3701.029710
1078.431031,-13619.789333,-71400.100414,444.123565
1078.433606,-11251.130318,-75230.577904,-7846.182985
1078.436180,-8290.306550,-76609.549800,-11695.253884
1078.438755,1628.453072,-74770.920605,-5773.606348
1078.441328,4737.318029,-73238.729609,2960.823768
1078.443901,-4441.235652,-74617.701505,-1332.370696
1078.446474,7698.141797,-74158.044206,5477.523971
1078.449047,7402.059420,-73545.167808,10658.965565
1078.451621,6217.729913,-72012.976812,16580.613101
1078.454194,7254.018232,-76456.330700,8290.306550
1078.456767,-296.082377,-79061.055394,-2664.741391
1078.459340,-888.247130,-75383.797003,-2368.659014
1078.461913,4441.235652,-70327.566716,740.205942
1078.464486,11547.212695,-68948.594820,9918.759623
1078.467060,7994.224174,-73085.510509,10362.883188
1078.469633,296.082377,-77528.864398,3849.070898
1078.472206,12879.583391,-77222.426198,11547.212695
1078.474779,-5773.606348,-77069.207099,-2812.782580
1078.477352,8142.265362,-73851.606007,-592.164754
1078.479925,6809.894666,-70327.566716,2220.617826
1078.482499,1628.453072,-70174.347617,9178.553681
1078.485072,5921.647536,-74004.825107,9770.718434
1078.487645,2220.617826,-75383.797003,10955.047942
1078.490218,18801.230927,-76609.549800,8290.306550
1078.492791,-5329.482782,-75077.358804,8882.471304
1078.495364,10066.800811,-72319.415011,8882.471304
1078.497938,888.247130,-72779.072310,-1480.411884
1078.500511,15988.448347,-73545.167808,-0.000000
1078.503084,2072.576638,-74004.825107,1628.453072
1078.505657,1332.370696,-74004.825107,10807.006753
1078.508230,-18357.107362,-76609.549800,-2812.782580
1078.510803,2368.659014,-75077.358804,-1036.288319
1078.513377,-6069.688724,-74158.044206,-5773.606348
1078.515950,-5921.647536,-72012.976812,-7550.100608
1078.518523,-5477.523971,-73545.167808,-11103.089130
1078.521096,-16580.613101,-74464.482406,-6957.935855
1078.523669,-1036.288319,-74311.263306,592.164754
1078.526242,-7105.977043,-74311.263306,5181.441594
1078.528816,8734.430116,-74158.044206,6069.688724
1078.531389,-2960.823768,-77222.426198,5477.523971
1078.533962,-1628.453072,-75843.454302,8586.388927
1078.536535,444.123565,-73545.167808,-9622.677246
1078.539108,-23094.425390,-71706.538613,-11991.336260
1078.541681,-2516.700203,-72012.976812,4589.276840
1078.544253,-9326.594869,-75077.358804,-5625.565159
1078.546826,-17912.983796,-77682.083497,-5477.523971
1078.549398,5625.565159,-76456.330700,-2664.741391
1078.551970,-8734.430116,-72166.195912,-5625.565159
1078.554542,-9326.594869,-73391.948708,1332.370696
1078.557115,-3849.070898,-75690.235202,-6957.935855
1078.559687,-11251.130318,-74311.263306,-6957.935855
1078.562259,8882.471304,-74464.482406,-9178.553681
1078.564832,-2812.782580,-73391.948708,2664.741391
1078.567404,-3256.906145,-74311.263306,-2072.576638
1078.569976,3997.112087,-73391.948708,8586.388927
1078.572548,12583.501014,-71553.319513,15692.365970
1078.575121,9622.677246,-72625.853210,16728.654289
1078.577693,3404.947333,-77222.426198,6069.688724
1078.580265,2072.576638,-78754.617194,-3552.988522
1078.582838,-444.123565,-75690.235202,-3552.988522
1078.585410,3701.029710,-68642.156621,1628.453072
1078.587982,6069.688724,-69714.690318,9326.594869
1078.590555,6809.894666,-74924.139704,11695.253884
1078.593127,2368.659014,-76149.892501,4145.153275
1078.595699,-0.000000,-76609.549800,10955.047942
1078.598271,4885.359217,-77222.426198,-444.123565
1078.600844,1924.535449,-72012.976812,-1184.329507
1078.603416,7846.182985,-70634.004916,6217.729913
1078.605988,11251.130318,-71093.662214,10362.883188
1078.608561,11843.295072,-74004.825107,11695.253884
1078.611133,1036.288319,-77528.864398,10066.800811
1078.613705,7254.018232,-75843.454302,8290.306550
1078.616278,-0.000000,-74311.263306,9030.512492
1078.618850,2812.782580,-72319.415011,5329.482782
1078.621422,2812.782580,-72625.853210,-1480.411884
1078.623994,14508.036463,-73545.167808,4737.318029
1078.626567,3849.070898,-74617.701505,6957.935855
1078.629139,-26203.290347,-76609.549800,8290.306550
1078.631711,2072.576638,-77988.521696,-1776.494261
1078.634284,-13619.789333,-73851.606007,-3108.864956
1078.636856,5773.606348,-71859.757712,-5773.606348
1078.639428,-12435.459826,-72012.976812,-8142.265362
1078.642000,-7254.018232,-74464.482406,-9030.512492
1078.644573,-12435.459826,-75690.235202,-4885.359217
1078.647145,-6809.894666,-73085.510509,-592.164754
1078.649716,-5921.647536,-74464.482406,6217.729913
1078.652288,-3404.947333,-74770.920605,2812.782580
1078.654860,-1036.288319,-75996.673402,2664.741391
1078.657432,-9326.594869,-75690.235202,-8586.388927
1078.660004,-17764.942608,-71093.662214,-4885.359217
1078.662576,17172.777854,-73545.167808,9622.677246
1078.665147,-2072.576638,-75843.454302,-4441.235652
1078.667719,-6513.812290,-76456.330700,-4145.153275
1078.670291,6513.812290,-77375.645298,-5181.441594
1078.672863,-19393.395680,-73851.606007,-1036.288319
1078.675435,6809.894666,-73085.510509,592.164754
1078.678006,-24278.754898,-74158.044206,-5477.523971
1078.680578,-13619.789333,-75383.797003,-5181.441594
1078.683150,12139.377449,-74158.044206,-9178.553681
1078.685722,-444.123565,-72166.195912,-148.041188
1078.688294,296.082377,-75537.016103,-3256.906145
1078.690866,1924.535449,-75230.577904,7698.141797
1078.693437,11103.089130,-72319.415011,11843.295072
1078.696009,11695.253884,-71246.881314,19097.313304
1078.698581,10658.965565,-76915.987999,10955.047942
1078.701153,-296.082377,-79673.931792,-4589.276840
1078.703725,-0.000000,-75537.016103,-4885.359217
1078.706297,3997.112087,-70174.347617,740.205942
1078.708868,8142.265362,-69255.033019,11695.253884
1078.711440,11843.295072,-74464.482406,11103.089130
1078.714012,6809.894666,-75996.673402,3108.864956
1078.716584,-10807.006753,-77069.207099,-5033.400406
1078.719156,1184.329507,-75383.797003,-0.000000
1078.721727,22206.178260,-72012.976812,-2960.823768
1078.724299,-6069.688724,-70787.224015,7254.018232
1078.726871,29904.320057,-70940.443115,10066.800811
1078.729443,-3701.029710,-73085.510509,10214.842000
1078.732015,20133.601622,-77222.426198,7698.141797
1078.734587,-3552.988522,-75996.673402,3256.906145
1078.737158,-0.000000,-73545.167808,8734.430116
1078.739730,7105.977043,-73085.510509,1332.370696
1078.742302,2664.741391,-71553.319513,740.205942
1078.744874,11991.336260,-72012.976812,5921.647536
1078.747446,2368.659014,-74617.701505,7994.224174
1078.750016,-28127.825796,-76609.549800,1332.370696
1078.752586,2368.659014,-77835.302597,-5181.441594
1078.755157,-13471.748144,-73698.386908,-5033.400406
1078.757727,1776.494261,-70940.443115,-5181.441594
1078.760297,-6809.894666,-72319.415011,-9622.677246
1078.762868,-13323.706956,-74924.139704,-7698.141797
1078.765438,-3108.864956,-74924.139704,-5181.441594
1078.768009,-13027.624579,-74770.920605,-296.082377
1078.770579,2220.617826,-73391.948708,3849.070898
1078.773149,-4441.235652,-75383.797003,3701.029710
1078.775720,-18061.024985,-74617.701505,-10066.800811
1078.778290,-3108.864956,-74617.701505,-740.205942
1078.780860,-13175.665768,-72779.072310,-1036.288319
1078.783431,-6513.812290,-71246.881314,2220.617826
1078.786001,-6513.812290,-74770.920605,-9030.512492
1078.788571,-11843.295072,-75230.577904,-6809.894666
1078.791142,3256.906145,-74617.701505,-6217.729913
1078.793712,-12139.377449,-73545.167808,-1036.288319
1078.796282,-9770.718434,-72779.072310,-2368.659014
1078.798853,-9474.636058,-75690.235202,-5329.482782
1078.801423,-6217.729913,-75077.358804,-3108.864956
1078.803993,7698.141797,-72932.291410,-3404.947333
1078.806564,-3108.864956,-74004.825107,-740.205942
1078.809134,1776.494261,-75843.454302,-444.123565
1078.811705,4589.276840,-74311.263306,9178.553681
1078.814275,15248.242405,-70021.128517,21762.054695
1078.816845,8438.347739,-74617.701505,17172.777854
1078.819416,3404.947333,-78294.959896,2812.782580
1078.821986,-1332.370696,-78754.617194,-6069.688724
1078.824556,5033.400406,-72625.853210,-296.082377
1078.827127,8882.471304,-69101.813920,4885.359217
1078.829697,10066.800811,-69561.471218,11399.171507
1078.832267,21465.972318,-74924.139704,6957.935855
1078.834838,3701.029710,-78448.178995,-1480.411884
1078.837408,-12435.459826,-77375.645298,-5329.482782
1078.839978,21317.931130,-75996.673402,9178.553681
1078.842549,12139.377449,-72012.976812,6513.812290
1078.845119,12287.418637,-68182.499322,10066.800811
1078.847689,23242.466579,-73545.167808,9178.553681
1078.850260,-5477.523971,-77069.207099,12583.501014
1078.852829,7698.141797,-76456.330700,9918.759623
1078.855399,5477.523971,-75383.797003,6661.853478
1078.857968,-3552.988522,-73238.729609,6217.729913
1078.860538,13915.871710,-71859.757712,-1184.329507
1078.863107,11399.171507,-71553.319513,7698.141797
1078.865676,3701.029710,-73238.729609,4885.359217
1078.868246,-17172.777854,-77069.207099,8438.347739
1078.870815,-5625.565159,-80286.808190,-7846.182985
1078.873385,-15248.242405,-73391.948708,-8438.347739
1078.875954,2072.576638,-70634.004916,-5181.441594
1078.878524,-7550.100608,-71246.881314,-7550.100608
1078.881093,-12879.583391,-75383.797003,-5477.523971
1078.883663,-7105.977043,-75843.454302,-6365.771101
1078.886232,-13471.748144,-74770.920605,-1628.453072
1078.888801,-2072.576638,-74617.701505,5033.400406
1078.891371,3701.029710,-76303.111601,5921.647536
1078.893940,14952.160028,-74158.044206,-2072.576638
1078.896510,-43672.150578,-75690.235202,-8882.471304
1078.899079,17764.942608,-72472.634111,10955.047942
1078.901649,-10955.047942,-74158.044206,-3849.070898
1078.904218,-14952.160028,-72472.634111,-4885.359217
1078.906788,25167.002028,-76456.330700,-13471.748144
1078.909357,-31828.855506,-75077.358804,-888.247130
1078.911926,-1184.329507,-74770.920605,3404.947333
1078.914496,-13619.789333,-73391.948708,-8438.347739
1078.917065,-25463.084405,-73698.386908,-3701.029710
1078.919635,10658.965565,-74924.139704,-10807.006753
1078.922204,-4737.318029,-72625.853210,3849.070898
1078.924774,4737.318029,-74924.139704,1332.370696
1078.927343,-740.205942,-75690.235202,2812.782580
1078.929913,3552.988522,-74004.825107,14804.118840
1078.932482,18357.107362,-70940.443115,19245.354492
1078.935051,6513.812290,-74311.263306,17468.860231
1078.937621,6661.853478,-79061.055394,2812.782580
1078.940190,-2368.659014,-78141.740796,-4441.235652
1078.942760,5773.606348,-72779.072310,-1480.411884
1078.945329,6513.812290,-69867.909418,5329.482782
1078.947899,1036.288319,-71400.100414,10658.965565
1078.950468,7846.182985,-75843.454302,9622.677246
1078.953038,2664.741391,-76762.768900,12139.377449
1078.955607,2516.700203,-77835.302597,-6957.935855
1078.958176,-6809.894666,-76915.987999,10362.883188
1078.960745,25759.166782,-69101.813920,6661.853478
1078.963314,-0.000000,-69101.813920,13323.706956
1078.965883,11103.089130,-73391.948708,13027.624579
1078.968452,2516.700203,-78141.740796,10807.006753
1078.971021,8586.388927,-77375.645298,10658.965565
1078.973590,-2220.617826,-74924.139704,5329.482782
1078.976159,1184.329507,-73545.167808,5329.482782
1078.978727,26499.372724,-71859.757712,6809.894666
1078.981296,-5181.441594,-72625.853210,4589.276840
1078.983865,11103.089130,-73851.606007,13915.871710
1078.986434,-18949.272115,-80746.465489,-10066.800811
1078.989003,-296.082377,-76456.330700,-3404.947333
1078.991572,-148.041188,-73545.167808,-5329.482782
1078.994141,-7846.182985,-68948.594820,-4145.153275
1078.996710,-2368.659014,-73545.167808,-4589.276840
1078.999279,-16284.530724,-75690.235202,-5773.606348
1079.001848,-9178.553681,-75843.454302,-4737.318029
1079.004417,-4293.194464,-75843.454302,740.205942
1079.006986,592.164754,-73391.948708,2812.782580
1079.009555,1480.411884,-74464.482406,3701.029710
1079.012124,-11251.130318,-75996.673402,-7846.182985
1079.014693,-25907.207970,-74464.482406,-5625.565159
1079.017262,12139.377449,-72625.853210,2072.576638
1079.019831,-9918.759623,-73085.510509,-3108.864956
1079.022400,3997.112087,-75383.797003,-7402.059420
1079.024969,6957.935855,-75077.358804,-7698.141797
1079.027538,-21614.013506,-73085.510509,-6809.894666
1079.030107,-3552.988522,-71859.757712,-7550.100608
1079.032676,-13915.871710,-74004.825107,-6217.729913
1079.035245,-5477.523971,-75537.016103,-1036.288319
1079.037814,10510.924376,-74004.825107,-1628.453072
1079.040383,-6513.812290,-73085.510509,-148.041188
1079.042952,3404.947333,-75077.358804,-1332.370696
1079.045521,2072.576638,-74617.701505,10362.883188
1079.048090,18653.189738,-70940.443115,19689.478057
1079.050659,8438.347739,-73085.510509,16432.571912
1079.053228,3256.906145,-77682.083497,4737.318029
1079.055797,148.041188,-78141.740796,-3108.864956
1079.058365,-888.247130,-74770.920605,-3552.988522
1079.060932,10955.047942,-69867.909418,3997.112087
1079.063500,14211.954086,-72625.853210,15248.242405
1079.066068,13915.871710,-74004.825107,5477.523971
1079.068635,-20577.725188,-77375.645298,1184.329507
1079.071203,25315.043216,-77528.864398,9474.636058
1079.073771,4441.235652,-75537.016103,-11843.295072
1079.076338,-5033.400406,-71400.100414,8882.471304
1079.078906,49445.756926,-71246.881314,13323.706956
1079.081474,-17764.942608,-72625.853210,6217.729913
1079.084041,14952.160028,-76762.768900,15100.201217
1079.086609,2368.659014,-77222.426198,3404.947333
1079.089177,-10362.883188,-74924.139704,7698.141797
1079.091744,22206.178260,-73085.510509,-2220.617826
1079.094312,6661.853478,-70174.347617,5477.523971
1079.096880,6957.935855,-72166.195912,5625.565159
1079.099447,-8438.347739,-74770.920605,9770.718434
1079.102015,-24278.754898,-80286.808190,-9770.718434
1079.104582,5181.441594,-76456.330700,-6957.935855
1079.107150,-3997.112087,-72932.291410,-6661.853478
1079.109718,-5477.523971,-68642.156621,-3552.988522
1079.112285,-5773.606348,-72932.291410,-5625.565159
1079.114853,-13619.789333,-75843.454302,-3552.988522
1079.117421,-10362.883188,-76303.111601,-3552.988522
1079.119988,-1184.329507,-74158.044206,1480.411884
1079.122556,-5033.400406,-74617.701505,3108.864956
1079.125124,-10214.842000,-73851.606007,-0.000000
1079.127691,2368.659014,-72779.072310,-3256.906145
1079.130259,-27387.619854,-75077.358804,1480.411884
1079.132827,11251.130318,-70480.785816,2960.823768
1079.135394,-11251.130318,-74924.139704,-7550.100608
1079.137962,-14656.077652,-75077.358804,-5773.606348
1079.140530,16284.530724,-75383.797003,-4589.276840
1079.143097,-25167.002028,-73545.167808,-5921.647536
1079.145665,-4737.318029,-73851.606007,-6365.771101
1079.148233,-10066.800811,-74311.263306,-8882.471304
1079.150800,-6069.688724,-75383.797003,-888.247130
1079.153368,12435.459826,-74004.825107,-2516.700203
1079.155935,-13767.830521,-74004.825107,-2812.782580
1079.158503,5329.482782,-74617.701505,6217.729913
1079.161070,10807.006753,-73085.510509,10807.006753
1079.163637,11695.253884,-70021.128517,19837.519246
1079.166204,12287.418637,-74924.139704,11547.212695
1079.168770,-444.123565,-78601.398095,2220.617826
1079.171337,-444.123565,-77375.645298,-4589.276840
1079.173904,6661.853478,-71706.538613,-148.041188
1079.176471,-296.082377,-68948.594820,7254.018232
1079.179037,11547.212695,-71706.538613,12731.542202
1079.181604,1924.535449,-73545.167808,1036.288319
1079.184171,-9770.718434,-76915.987999,7402.059420
1079.186738,20281.642811,-77528.864398,4589.276840
1079.189305,-9030.512492,-75843.454302,6217.729913
1079.191871,26055.249158,-70940.443115,11251.130318
1079.194438,4293.194464,-70634.004916,8734.430116
1079.197005,-444.123565,-75383.797003,17024.736666
1079.199572,17172.777854,-78448.178995,14211.954086
1079.202139,-12139.377449,-76915.987999,7994.224174
1079.204705,15988.448347,-74004.825107,4293.194464
1079.207272,8882.471304,-72319.415011,1480.411884
1079.209839,8734.430116,-70940.443115,9030.512492
1079.212406,5477.523971,-73545.167808,9622.677246
1079.214973,-29756.278868,-78907.836294,-6365.771101
1079.217539,7550.100608,-78907.836294,-4293.194464
1079.220106,-11251.130318,-74617.701505,-9474.636058
1079.222673,296.082377,-68795.375720,-2516.700203
1079.225240,-2664.741391,-71706.538613,-6957.935855
1079.227807,-18209.066173,-74770.920605,-5477.523971
1079.230373,-2220.617826,-76456.330700,-4885.359217
1079.232940,-18653.189738,-76915.987999,-2516.700203
1079.235507,1776.494261,-72779.072310,592.164754
1079.238074,7698.141797,-74464.482406,-3701.029710
1079.240640,-32865.143825,-72319.415011,-1332.370696
1079.243207,37454.420665,-73085.510509,-4885.359217
1079.245774,-56403.692780,-74617.701505,-4737.318029
1079.248341,12731.542202,-73851.606007,-592.164754
1079.250908,-10658.965565,-75843.454302,-16728.654289
1079.253474,-35381.844028,-75383.797003,-2516.700203
1079.256041,16728.654289,-74770.920605,-2368.659014
1079.258608,-31532.773129,-74311.263306,-9918.759623
1079.261175,-7698.141797,-74158.044206,-5773.606348
1079.263704,2220.617826,-74158.044206,-8586.388927
1079.266233,-2220.617826,-73085.510509,4589.276840
1079.268762,1480.411884,-74770.920605,-3997.112087
1079.271291,1628.453072,-75383.797003,3404.947333
1079.273820,11547.212695,-73698.386908,16284.530724
1079.276350,9918.759623,-71553.319513,18653.189738
1079.278879,11991.336260,-73238.729609,11103.089130
1079.281408,296.082377,-77835.302597,-0.000000
1079.283937,-888.247130,-77222.426198,-2220.617826
1079.286466,6217.729913,-72472.634111,-2220.617826
1079.288995,3701.029710,-68488.937521,5033.400406
1079.291524,18949.272115,-71859.757712,14508.036463
1079.294054,17320.819043,-75843.454302,10214.842000
1079.296583,-17468.860231,-78754.617194,1184.329507
1079.299112,27683.702231,-76609.549800,-1480.411884
1079.301641,-14211.954086,-74617.701505,4145.153275
1079.304170,18949.272115,-70480.785816,13471.748144
1079.306699,10066.800811,-71859.757712,9030.512492
1079.309228,-12287.418637,-75383.797003,14063.912898
1079.311757,19541.436869,-77375.645298,6513.812290
1079.314287,-19097.313304,-76609.549800,1628.453072
1079.316816,13915.871710,-74617.701505,4441.235652
1079.319345,18357.107362,-70634.004916,5921.647536
1079.321874,3552.988522,-70327.566716,10807.006753
1079.324403,5625.565159,-72779.072310,9770.718434
1079.326932,-34641.638086,-80593.246390,-8586.388927
1079.329461,3849.070898,-77682.083497,-6069.688724
1079.331990,-4293.194464,-73851.606007,-8438.347739
1079.334520,-3404.947333,-67569.622924,-1036.288319
1079.337049,-5181.441594,-71706.538613,-3849.070898
1079.339578,-15100.201217,-75230.577904,-3404.947333
1079.342107,-9178.553681,-77069.207099,-5625.565159
1079.344636,-2220.617826,-74924.139704,-1924.535449
1079.347165,8142.265362,-75690.235202,2812.782580
1079.349694,-21317.931130,-73545.167808,444.123565
1079.352224,8142.265362,-72779.072310,-592.164754
1079.354753,-7105.977043,-73391.948708,-4293.194464
1079.357282,-11103.089130,-74464.482406,1036.288319
1079.359811,5773.606348,-75690.235202,-5625.565159
1079.362340,-10955.047942,-74617.701505,-10362.883188
1079.364876,-8586.388927,-74464.482406,-1628.453072
1079.367412,-9474.636058,-74464.482406,-4293.194464
1079.369949,-19393.395680,-73085.510509,-6809.894666
1079.372485,-3701.029710,-74770.920605,-6809.894666
1079.375021,3997.112087,-73698.386908,-148.041188
1079.377557,592.164754,-75077.358804,2960.823768
1079.380093,6513.812290,-74924.139704,-3552.988522
1079.382630,-2812.782580,-74004.825107,10066.800811
1079.385166,27091.537477,-72319.415011,22354.219448
1079.387702,-888.247130,-72779.072310,17616.901420
1079.390238,11695.253884,-76609.549800,5477.523971
1079.392774,-2072.576638,-78294.959896,-1184.329507
1079.395310,1924.535449,-74924.139704,-2812.782580
1079.397847,8586.388927,-71400.100414,3849.070898
1079.400383,20281.642811,-71093.662214,9770.718434
1079.402919,22502.260637,-72625.853210,13619.789333
1079.405455,18209.066173,-76303.111601,5477.523971
1079.407991,-24130.713709,-77069.207099,1184.329507
1079.410528,35233.802839,-77528.864398,5033.400406
1079.413064,-17764.942608,-72625.853210,11695.253884
1079.415600,34345.555709,-70021.128517,14063.912898
1079.418136,-2812.782580,-73545.167808,13619.789333
1079.420672,11843.295072,-77528.864398,12435.459826
1079.423209,4145.153275,-77682.083497,148.041188
1079.425745,148.041188,-75230.577904,1480.411884
1079.428281,23094.425390,-72166.195912,3701.029710
1079.430817,3404.947333,-70634.004916,11695.253884
1079.433353,7550.100608,-71553.319513,13323.706956
1079.435889,-28423.908173,-77375.645298,-5477.523971
1079.438426,1776.494261,-79827.150892,-10066.800811
1079.440962,-8882.471304,-75230.577904,-13915.871710
1079.443498,-1036.288319,-68795.375720,-5033.400406
1079.446034,-592.164754,-70634.004916,-4885.359217
1079.448570,-19689.478057,-73698.386908,-2516.700203
1079.451107,-2220.617826,-76303.111601,-2368.659014
1079.453643,-17616.901420,-76303.111601,-4441.235652
1079.456179,8142.265362,-74617.701505,148.041188
1079.458715,-11843.295072,-74617.701505,-2368.659014
1079.461251,-10510.924376,-73238.729609,296.082377
1079.463788,-3552.988522,-72779.072310,-0.000000
1079.466330,-17764.942608,-73851.606007,4589.276840
1079.468872,-3552.988522,-76915.987999,-7698.141797
1079.471415,-10807.006753,-77222.426198,-10807.006753
1079.473957,1036.288319,-73698.386908,-9178.553681
1079.476499,-15396.283594,-73545.167808,-1480.411884
1079.479042,-6365.771101,-72779.072310,-7994.224174
1079.481584,-9178.553681,-74770.920605,-2220.617826
1079.484127,3849.070898,-74770.920605,296.082377
1079.486669,-888.247130,-75383.797003,-296.082377
1079.489211,5921.647536,-75383.797003,-4293.194464
1079.491754,2664.741391,-73545.167808,9178.553681
1079.494296,21614.013506,-72166.195912,20281.642811
1079.496839,5625.565159,-71859.757712,18653.189738
1079.499381,1480.411884,-76609.549800,2664.741391
1079.501923,2368.659014,-78141.740796,-1776.494261
1079.504466,1184.329507,-74770.920605,-2516.700203
1079.507008,8734.430116,-70327.566716,5329.482782
1079.509550,14063.912898,-73238.729609,13471.748144
1079.512093,9918.759623,-73238.729609,10362.883188
1079.514635,3997.112087,-76303.111601,11399.171507
1079.517178,14804.118840,-77682.083497,-1628.453072
1079.519720,-6069.688724,-76149.892501,4885.359217
1079.522262,19985.560434,-70327.566716,9326.594869
1079.524805,13767.830521,-70327.566716,9474.636058
1079.527347,4293.194464,-74158.044206,14211.954086
1079.529890,12139.377449,-77069.207099,9474.636058
1079.532432,-15840.407159,-77528.864398,3108.864956
1079.534974,6661.853478,-74004.825107,2072.576638
1079.537517,24870.919651,-71093.662214,7402.059420
1079.540059,888.247130,-70021.128517,10362.883188
1079.542602,-1628.453072,-72625.853210,10066.800811
1079.545144,-30792.567187,-79367.493593,-13471.748144
1079.547690,3552.988522,-78141.740796,-8882.471304
1079.550238,-9326.594869,-75383.797003,-12287.418637
1079.552785,-3256.906145,-68182.499322,-4145.153275
1079.555332,444.123565,-71553.319513,-1924.535449
1079.557880,-14952.160028,-74924.139704,-3108.864956
1079.560427,-11399.171507,-77222.426198,-2368.659014
1079.562974,-10214.842000,-76762.768900,-1480.411884
1079.565522,3256.906145,-75537.016103,296.082377
1079.568069,-5329.482782,-73391.948708,-888.247130
1079.570616,-12731.542202,-74464.482406,296.082377
1079.573163,-7402.059420,-69714.690318,2072.576638
1079.575711,-6661.853478,-73391.948708,-1924.535449
1079.578258,-16284.530724,-75537.016103,-11399.171507
1079.580805,7994.224174,-74617.701505,-14211.954086
1079.583353,-12139.377449,-74311.263306,-4885.359217
1079.585900,-7254.018232,-73085.510509,-4737.318029
1079.588447,-11399.171507,-73085.510509,-6069.688724
1079.590995,-1184.329507,-74004.825107,-2368.659014
1079.593542,1184.329507,-74617.701505,740.205942
1079.596089,1480.411884,-75230.577904,-7550.100608
1079.598636,2664.741391,-73391.948708,4885.359217
1079.601184,16136.489536,-72319.415011,14508.036463
1079.603731,11103.089130,-71706.538613,21762.054695
1079.606278,9474.636058,-74311.263306,8438.347739
1079.608826,1628.453072,-77069.207099,444.123565
1079.611373,4145.153275,-76609.549800,-4293.194464
1079.613920,-444.123565,-70940.443115,148.041188
1079.616468,17616.901420,-71246.881314,8142.265362
1079.619015,16136.489536,-72319.415011,4145.153275
1079.621562,-14508.036463,-75537.016103,1332.370696
1079.624109,20133.601622,-78141.740796,15100.201217
1079.626657,6809.894666,-76456.330700,-4441.235652
1079.629204,-12583.501014,-73238.729609,10510.924376
1079.631751,37158.338288,-69101.813920,9622.677246
1079.634299,888.247130,-71859.757712,8438.347739
1079.636846,9918.759623,-75843.454302,11991.336260
1079.639393,-148.041188,-79214.274493,5329.482782
1079.641941,-9178.553681,-75843.454302,4737.318029
1079.644488,29312.155303,-72625.853210,1924.535449
1079.647035,1776.494261,-70174.347617,11547.212695
1079.649587,7994.224174,-71859.757712,13027.624579
1079.652139,-33901.432144,-78294.959896,-17024.736666
1079.654690,6069.688724,-78294.959896,-7550.100608
1079.657242,-11251.130318,-76149.892501,-14359.995275
1079.659794,-3256.906145,-69714.690318,-4589.276840
1079.662346,740.205942,-70174.347617,-5773.606348
1079.664898,-19393.395680,-73085.510509,-3997.112087
1079.667449,-4737.318029,-75537.016103,-2664.741391
1079.670001,3552.988522,-75690.235202,-3256.906145
1079.672553,-296.082377,-76303.111601,3701.029710
1079.675105,2516.700203,-75537.016103,-2664.741391
1079.677656,-10362.883188,-72012.976812,-148.041188
1079.680208,8882.471304,-72166.195912,1924.535449
1079.682760,-30792.567187,-73851.606007,-1036.288319
1079.685312,5477.523971,-76303.111601,-6513.812290
1079.687863,1332.370696,-77835.302597,-12139.377449
1079.690415,-20725.766376,-72932.291410,-6217.729913
1079.692967,2072.576638,-73085.510509,-10658.965565
1079.695519,-20873.807564,-71859.757712,-2664.741391
1079.698070,9770.718434,-73391.948708,-4441.235652
1079.700622,-7994.224174,-75230.577904,2960.823768
1079.703174,-888.247130,-76456.330700,-6661.853478
1079.705726,6661.853478,-74311.263306,4441.235652
1079.708278,14656.077652,-72012.976812,16432.571912
1079.710829,11103.089130,-70940.443115,20429.683999
1079.713381,8882.471304,-75230.577904,7846.182985
1079.715933,-2072.576638,-77528.864398,-1776.494261
1079.718485,-1184.329507,-76915.987999,-3997.112087
1079.721036,9770.718434,-70940.443115,1184.329507
1079.723588,11843.295072,-68642.156621,5477.523971
1079.726140,9326.594869,-74158.044206,10362.883188
1079.728692,8734.430116,-75996.673402,13915.871710
1079.731243,21614.013506,-76303.111601,-7994.224174
1079.733795,-26203.290347,-76303.111601,-7254.018232
1079.736347,21910.095883,-72012.976812,9474.636058
1079.738899,444.123565,-69561.471218,10807.006753
1079.741450,12139.377449,-69561.471218,14656.077652
1079.744002,15988.448347,-76915.987999,10807.006753
1079.746554,-15100.201217,-77988.521696,148.041188
1079.749106,14063.912898,-75690.235202,-296.082377
1079.751661,16728.654289,-71553.319513,6069.688724
1079.754216,2812.782580,-69867.909418,14952.160028
1079.756772,-3997.112087,-72625.853210,13619.789333
1079.759327,-28868.031738,-78448.178995,-10955.047942
1079.761882,1776.494261,-78448.178995,-13471.748144
1079.764437,-1628.453072,-75077.358804,-8586.388927
1079.766993,-5625.565159,-69101.813920,-2664.741391
1079.769548,-0.000000,-71553.319513,-1924.535449
1079.772103,-17024.736666,-74311.263306,-148.041188
1079.774659,1184.329507,-76915.987999,-148.041188
1079.777214,-2516.700203,-76456.330700,-2516.700203
1079.779769,11251.130318,-73545.167808,-7550.100608
1079.782324,-9178.553681,-74770.920605,-3404.947333
1079.784880,7550.100608,-71400.100414,-1924.535449
1079.787435,-10362.883188,-75077.358804,2368.659014
1079.789990,-7698.141797,-75077.358804,-888.247130
1079.792545,5329.482782,-77222.426198,-14359.995275
1079.795101,-19985.560434,-76456.330700,-9918.759623
1079.797656,-2220.617826,-73238.729609,-11251.130318
1079.800211,-17320.819043,-72472.634111,-5625.565159
1079.802767,-10807.006753,-72625.853210,-3849.070898
1079.805322,7402.059420,-74158.044206,2664.741391
1079.807877,-8882.471304,-76915.987999,-3404.947333
1079.810432,9622.677246,-75843.454302,-1184.329507
1079.812988,2368.659014,-73851.606007,10658.965565
1079.815543,19541.436869,-70480.785816,24722.878463
1079.818098,7550.100608,-73085.510509,21021.848753
1079.820654,-1332.370696,-77835.302597,1628.453072
1079.823209,1480.411884,-77375.645298,-4145.153275
1079.825764,3701.029710,-74004.825107,-1628.453072
1079.828319,9178.553681,-68488.937521,5477.523971
1079.830875,15396.283594,-71706.538613,13027.624579
1079.833430,11103.089130,-72932.291410,20429.683999
1079.835985,2072.576638,-77988.521696,2220.617826
1079.838540,-11103.089130,-78141.740796,296.082377
1079.841096,8142.265362,-73698.386908,6069.688724
1079.843651,17172.777854,-69408.252119,13175.665768
1079.846206,10066.800811,-70787.224015,14359.995275
1079.848762,10362.883188,-74311.263306,14656.077652
1079.851317,-7402.059420,-78448.178995,5033.400406
1079.853875,-1628.453072,-77375.645298,888.247130
1079.856433,20577.725188,-73238.729609,444.123565
1079.858990,-444.123565,-70174.347617,13323.706956
1079.861548,11547.212695,-71093.662214,13915.871710
1079.864106,-35529.885216,-76609.549800,-13323.706956
1079.866664,4293.194464,-77835.302597,-10807.006753
1079.869222,-15544.324782,-77682.083497,-14804.118840
1079.871780,-5477.523971,-71400.100414,-5477.523971
1079.874338,2072.576638,-69867.909418,-6069.688724
1079.876895,-14359.995275,-73238.729609,-2516.700203
1079.879453,-11251.130318,-76609.549800,-1776.494261
1079.882011,-11695.253884,-75843.454302,-3849.070898
1079.884569,-6957.935855,-76456.330700,4589.276840
1079.887127,10955.047942,-73698.386908,2220.617826
1079.889685,-17468.860231,-70174.347617,-1776.494261
1079.892243,9178.553681,-72472.634111,6661.853478
1079.894801,-6069.688724,-76609.549800,-3552.988522
1079.897358,-26647.413912,-76609.549800,-8142.265362
1079.899916,5477.523971,-74464.482406,-12435.459826
1079.902474,-22354.219448,-74158.044206,-8586.388927
1079.905032,-1776.494261,-72932.291410,-6069.688724
1079.907590,-8882.471304,-72625.853210,-3849.070898
1079.910148,3997.112087,-73545.167808,3108.864956
1079.912706,-8882.471304,-76609.549800,1480.411884
1079.915263,10214.842000,-76762.768900,3256.906145
1079.917821,5625.565159,-74158.044206,9918.759623
1079.920379,21317.931130,-70327.566716,23686.590144
1079.922937,11399.171507,-72932.291410,21317.931130
1079.925495,1184.329507,-77988.521696,4885.359217
1079.928053,1480.411884,-78448.178995,-2516.700203
1079.930611,1924.535449,-75077.358804,-3701.029710
1079.933169,4589.276840,-70940.443115,6661.853478
1079.935726,13915.871710,-71553.319513,15692.365970
1079.938284,15544.324782,-75077.358804,14508.036463
1079.940842,-5625.565159,-78294.959896,1332.370696
1079.943400,-4145.153275,-76149.892501,-5329.482782
1079.945958,23242.466579,-74770.920605,9918.759623
1079.948516,7698.141797,-71246.881314,15396.283594
1079.951074,21317.931130,-70634.004916,16136.489536
1079.953631,5921.647536,-74004.825107,9326.594869
1079.956157,-7550.100608,-77988.521696,-0.000000
1079.958682,9622.677246,-77528.864398,-2072.576638
1079.961207,13027.624579,-72779.072310,8586.388927
1079.963733,10658.965565,-70940.443115,12435.459826
1079.966258,-6957.935855,-70634.004916,16876.695478
1079.968783,-22206.178260,-77222.426198,-10955.047942
1079.971309,-2812.782580,-77528.864398,-13027.624579
1079.973834,-1776.494261,-74924.139704,-11251.130318
1079.976359,-10510.924376,-70327.566716,-6957.935855
1079.978884,-296.082377,-71400.100414,-592.164754
1079.981410,-9326.594869,-73391.948708,-1036.288319
1079.983935,-17764.942608,-76149.892501,-888.247130
1079.986460,-1036.288319,-75077.358804,-5477.523971
1079.988986,-1184.329507,-74464.482406,-6365.771101
1079.991511,-7402.059420,-74311.263306,-148.041188
1079.994036,-10658.965565,-72625.853210,9474.636058
1079.996561,444.123565,-71706.538613,2368.659014
1079.999087,-31532.773129,-74311.263306,-2960.823768
1080.001612,11991.336260,-77682.083497,-10955.047942
1080.004137,-23242.466579,-75383.797003,-11103.089130
1080.006663,-2072.576638,-73698.386908,-11547.212695
1080.009188,-5329.482782,-71553.319513,-4737.318029
1080.011713,-4145.153275,-71859.757712,-148.041188
1080.014239,3701.029710,-74464.482406,2812.782580
1080.016764,-3701.029710,-77375.645298,-5477.523971
1080.019289,8438.347739,-76149.892501,3701.029710
1080.021814,11103.089130,-72779.072310,12583.501014
1080.024340,15248.242405,-69561.471218,24130.713709
1080.026865,7994.224174,-73545.167808,14211.954086
1080.029390,-1332.370696,-77528.864398,-0.000000
1080.031916,592.164754,-76609.549800,-6069.688724
1080.034441,1628.453072,-71859.757712,148.041188
1080.036966,6957.935855,-68182.499322,6069.688724
1080.039492,20725.766376,-71553.319513,15396.283594
1080.042017,-8586.388927,-75690.235202,6069.688724
1080.044542,-2368.659014,-78448.178995,-6069.688724
1080.047067,7402.059420,-77375.645298,4589.276840
1080.049593,22798.343014,-70940.443115,15396.283594
1080.052118,14211.954086,-70480.785816,16580.613101
1080.054643,17024.736666,-72472.634111,17172.777854
1080.057177,-3701.029710,-77835.302597,4145.153275
1080.059712,-3256.906145,-78448.178995,1924.535449
1080.062246,15544.324782,-75383.797003,148.041188
1080.064780,3997.112087,-71093.662214,11103.089130
1080.067314,9474.636058,-71400.100414,17468.860231
1080.069848,-31680.814318,-74924.139704,-6809.894666
1080.072383,4441.235652,-77375.645298,-11991.336260
1080.074917,-18505.148550,-76762.768900,-17616.901420
1080.077451,-1332.370696,-72779.072310,-8586.388927
1080.079985,-6365.771101,-70787.224015,-6661.853478
1080.082520,-11843.295072,-71859.757712,-1628.453072
1080.085054,-11251.130318,-76609.549800,148.041188
1080.087588,-11695.253884,-77988.521696,-0.000000
1080.090122,-6809.894666,-76609.549800,2368.659014
1080.092656,14952.160028,-75077.358804,1776.494261
1080.095191,-24130.713709,-72625.853210,-888.247130
1080.097725,5773.606348,-70327.566716,4885.359217
1080.100259,-8882.471304,-74158.044206,-3108.864956
1080.102793,-25611.125593,-77069.207099,-8438.347739
1080.105327,8438.347739,-75996.673402,-12583.501014
1080.107862,-20873.807564,-74617.701505,-11103.089130
1080.110396,-5477.523971,-71859.757712,-5181.441594
1080.112930,-5773.606348,-72625.853210,-4885.359217
1080.115464,-1332.370696,-73238.729609,8142.265362
1080.117998,-6513.812290,-76915.987999,-5181.441594
1080.120533,9178.553681,-77069.207099,5033.400406
1080.123067,19393.395680,-72779.072310,10807.006753
1080.125601,9918.759623,-69561.471218,20725.766376
1080.128135,10510.924376,-73545.167808,15692.365970
1080.130669,148.041188,-76456.330700,1184.329507
1080.133204,-3552.988522,-77222.426198,-4441.235652
1080.135738,5921.647536,-74158.044206,-740.205942
1080.138272,4293.194464,-71553.319513,8586.388927
1080.140806,8438.347739,-70634.004916,2960.823768
1080.143340,-5181.441594,-75077.358804,8438.347739
1080.145875,16580.613101,-78601.398095,4293.194464
1080.148409,-1628.453072,-76609.549800,-2368.659014
1080.150943,12435.459826,-70787.224015,11251.130318
1080.153477,19245.354492,-69867.909418,8586.388927
1080.156011,4589.276840,-70940.443115,16580.613101
1080.158553,6809.894666,-77988.521696,9622.677246
1080.161095,-8438.347739,-77069.207099,-1036.288319
1080.163637,21317.931130,-73698.386908,5921.647536
1080.166179,3108.864956,-72319.415011,5921.647536
1080.168721,8882.471304,-70174.347617,17764.942608
1080.171263,-27239.578666,-75996.673402,-7550.100608
1080.173805,4885.359217,-76915.987999,-9178.553681
1080.176347,-15840.407159,-76149.892501,-18801.230927
1080.178889,-10510.924376,-71859.757712,-7254.018232
1080.181431,2812.782580,-70940.443115,-3849.070898
1080.183973,-15988.448347,-72319.415011,-1184.329507
1080.186515,-12731.542202,-74924.139704,2812.782580
1080.189057,-5477.523971,-75383.797003,-3849.070898
1080.191599,-2220.617826,-75690.235202,-2368.659014
1080.194140,-5921.647536,-75230.577904,-8438.347739
1080.196682,2072.576638,-71553.319513,-2960.823768
1080.199224,-2072.576638,-70021.128517,2220.617826
1080.201766,-24870.919651,-74464.482406,-3256.906145
1080.204308,740.205942,-78141.740796,-8438.347739
1080.206850,-14804.118840,-76303.111601,-11547.212695
1080.209392,-7550.100608,-73085.510509,-14508.036463
1080.211934,-11251.130318,-72166.195912,-5329.482782
1080.214476,888.247130,-72166.195912,-888.247130
1080.217018,-6217.729913,-74770.920605,4293.194464
1080.219560,6069.688724,-77682.083497,-5477.523971
1080.222102,1036.288319,-75996.673402,7105.977043
1080.224644,23094.425390,-73238.729609,14211.954086
1080.227186,6513.812290,-70634.004916,21614.013506
1080.229728,12139.377449,-73698.386908,11103.089130
1080.232270,-3404.947333,-76456.330700,888.247130
1080.234812,1924.535449,-75537.016103,-5921.647536
1080.237353,4885.359217,-71246.881314,-0.000000
1080.239895,10214.842000,-69867.909418,8882.471304
1080.242437,-13471.748144,-73391.948708,15692.365970
1080.244979,35825.967593,-76149.892501,24426.796086
1080.247521,-7402.059420,-78601.398095,-10658.965565
1080.250063,-5773.606348,-74004.825107,3108.864956
1080.252605,37750.503042,-72472.634111,15248.242405
1080.255147,-8438.347739,-71553.319513,16580.613101
1080.257689,18357.107362,-74004.825107,18357.107362
1080.260236,-6365.771101,-76915.987999,3701.029710
1080.262784,3701.029710,-76762.768900,1332.370696
1080.265331,21910.095883,-73391.948708,2960.823768
1080.267879,3108.864956,-70940.443115,12287.418637
1080.270426,-10510.924376,-73238.729609,14656.077652
1080.272973,-4145.153275,-77222.426198,-12731.542202
1080.275521,-23982.672521,-75537.016103,-14359.995275
1080.278068,10658.965565,-73851.606007,-10955.047942
1080.280616,-22502.260637,-73238.729609,-6365.771101
1080.283163,7254.018232,-72166.195912,2072.576638
1080.285711,-13915.871710,-74004.825107,-2368.659014
1080.288258,-3404.947333,-75537.016103,1628.453072
1080.290805,13619.789333,-77835.302597,1184.329507
1080.293353,7994.224174,-75996.673402,-2072.576638
1080.295900,-12879.583391,-72012.976812,-1480.411884
1080.298448,6069.688724,-71859.757712,8142.265362
1080.300995,-12583.501014,-73085.510509,-1036.288319
1080.303542,-8734.430116,-77069.207099,-6365.771101
1080.306090,-3997.112087,-79061.055394,-15248.242405
1080.308637,-15840.407159,-74004.825107,-15100.201217
1080.311185,-2960.823768,-72166.195912,-7105.977043
1080.313732,-5181.441594,-71246.881314,-740.205942
1080.316280,296.082377,-72779.072310,3849.070898
1080.318827,-1628.453072,-76915.987999,-2072.576638
1080.321374,5329.482782,-77222.426198,3108.864956
1080.323922,14211.954086,-74770.920605,11991.336260
1080.326469,22354.219448,-70634.004916,20873.807564
1080.329017,4737.318029,-73698.386908,14508.036463
1080.331564,-148.041188,-75996.673402,1924.535449
1080.334111,-1776.494261,-77069.207099,-3849.070898
1080.336659,5921.647536,-71553.319513,-3256.906145
1080.339206,14063.912898,-68795.375720,1924.535449
1080.341754,16432.571912,-69867.909418,6809.894666
1080.344301,-6661.853478,-74770.920605,9178.553681
1080.346849,14508.036463,-77375.645298,888.247130
1080.349396,9474.636058,-76762.768900,4589.276840
1080.351943,2960.823768,-70940.443115,15840.407159
1080.354491,34049.473332,-71093.662214,15692.365970
1080.357038,-4441.235652,-73085.510509,14656.077652
1080.359586,7846.182985,-76456.330700,8734.430116
1080.362138,-10510.924376,-77835.302597,-740.205942
1080.364690,23242.466579,-73851.606007,9474.636058
1080.367242,16876.695478,-72012.976812,10214.842000
1080.369794,-26647.413912,-72012.976812,13471.748144
1080.372346,-3997.112087,-77375.645298,-13027.624579
1080.374898,-16284.530724,-76456.330700,-13323.706956
1080.377450,1776.494261,-75537.016103,-10362.883188
1080.380002,-17172.777854,-72932.291410,-7698.141797
1080.382554,5329.482782,-73085.510509,-740.205942
1080.385106,-2220.617826,-73391.948708,-2664.741391
1080.387658,-15544.324782,-77222.426198,2072.576638
1080.390210,20281.642811,-75537.016103,-6809.894666
1080.392762,-13767.830521,-77069.207099,-7105.977043
1080.395314,-5921.647536,-76149.892501,3108.864956
1080.397866,3701.029710,-69561.471218,1776.494261
1080.400418,-15840.407159,-70940.443115,148.041188
1080.402970,-4293.194464,-75383.797003,-6217.729913
1080.405522,-5625.565159,-77528.864398,-17468.860231
1080.408074,-17616.901420,-74617.701505,-15396.283594
1080.410626,-1332.370696,-72012.976812,-7698.141797
1080.413178,-9030.512492,-70940.443115,-740.205942
1080.415730,2812.782580,-73545.167808,7846.182985
1080.418282,-10807.006753,-76303.111601,-7254.018232
1080.420834,10955.047942,-77222.426198,3997.112087
1080.423386,27979.784608,-74464.482406,10658.965565
1080.425938,3552.988522,-70787.224015,21317.931130
1080.428490,17616.901420,-73851.606007,14656.077652
1080.431042,-9030.512492,-75843.454302,2368.659014
1080.433594,1776.494261,-76915.987999,-1924.535449
1080.436146,12879.583391,-72319.415011,-5181.441594
1080.438698,9622.677246,-72012.976812,6217.729913
1080.441250,7994.224174,-72625.853210,13323.706956
1080.443802,14063.912898,-73391.948708,15544.324782
1080.446354,2960.823768,-77835.302597,-8142.265362
1080.448906,-21762.054695,-75230.577904,1036.288319
1080.451458,31236.690752,-70480.785816,8290.306550
1080.454010,-5181.441594,-68642.156621,12287.418637
1080.456562,19245.354492,-72625.853210,11547.212695
1080.459114,-9622.677246,-74924.139704,888.247130
1080.461666,11103.089130,-76609.549800,-888.247130
1080.464222,9326.594869,-73698.386908,2812.782580
1080.466779,11103.089130,-71859.757712,13471.748144
1080.469335,-29608.237680,-72932.291410,2960.823768
1080.471891,-2516.700203,-76609.549800,-9178.553681
1080.474447,-20725.766376,-74617.701505,-19097.313304
1080.477003,5329.482782,-73851.606007,-14211.954086
1080.479559,-13915.871710,-72472.634111,-8142.265362
1080.482115,-15100.201217,-72472.634111,-296.082377
1080.484671,4441.235652,-74004.825107,2516.700203
1080.487227,-9030.512492,-76762.768900,1184.329507
1080.489784,-4589.276840,-76915.987999,-5773.606348
1080.492340,10066.800811,-75996.673402,444.123565
1080.494896,-12435.459826,-73545.167808,2664.741391
1080.497452,-2960.823768,-69255.033019,1036.288319
1080.500008,444.123565,-74158.044206,-5181.441594
1080.502564,-22354.219448,-77528.864398,-12287.418637
1080.505120,-1184.329507,-77835.302597,-17320.819043
1080.507676,-9918.759623,-74158.044206,-10214.842000
1080.510232,-5329.482782,-71400.100414,-3404.947333
1080.512788,1628.453072,-70940.443115,2368.659014
1080.515345,-9030.512492,-73698.386908,5625.565159
1080.517901,2368.659014,-77069.207099,-3404.947333
1080.520457,7846.182985,-76456.330700,7846.182985
1080.523013,25759.166782,-72472.634111,22502.260637
1080.525569,11399.171507,-71859.757712,21762.054695
1080.528125,-3108.864956,-74770.920605,13027.624579
1080.530681,3256.906145,-77069.207099,740.205942
1080.533237,-13175.665768,-75690.235202,-3849.070898
1080.535793,11547.212695,-72932.291410,1628.453072
1080.538349,25463.084405,-70174.347617,5329.482782
1080.540906,-6217.729913,-74004.825107,12435.459826
1080.543462,30644.525999,-77069.207099,5625.565159
1080.546018,-23094.425390,-78907.836294,-4885.359217
1080.548574,21169.889941,-73851.606007,11843.295072
1080.551130,19245.354492,-70787.224015,12435.459826
1080.553686,13027.624579,-70327.566716,16728.654289
1080.556242,10362.883188,-75230.577904,9326.594869
1080.558798,-8882.471304,-76456.330700,2664.741391
1080.561354,19985.560434,-75077.358804,6513.812290
1080.563910,2220.617826,-71859.757712,7402.059420
1080.566469,-2664.741391,-72319.415011,14359.995275
1080.569029,-22650.301825,-75690.235202,-11399.171507
1080.571589,-2664.741391,-74617.701505,-10807.006753
1080.574149,-7698.141797,-75230.577904,-15396.283594
1080.576708,-14508.036463,-72779.072310,-7698.141797
1080.579268,1036.288319,-72779.072310,-2664.741391
1080.581828,-13027.624579,-73698.386908,-592.164754
1080.584388,444.123565,-74311.263306,2220.617826
1080.586948,8586.388927,-75537.016103,-1776.494261
1080.589507,-12731.542202,-78141.740796,-8586.388927
1080.592067,-16136.489536,-76149.892501,2812.782580
1080.594627,-5921.647536,-71093.662214,6365.771101
1080.597187,-10510.924376,-72932.291410,-1184.329507
1080.599746,-25907.207970,-76456.330700,-7254.018232
1080.602306,8586.388927,-77222.426198,-17320.819043
1080.604866,-23094.425390,-74924.139704,-15544.324782
1080.607426,2812.782580,-71706.538613,-6217.729913
1080.609986,-6217.729913,-71706.538613,1184.329507
1080.612545,-1184.329507,-72625.853210,8438.347739
1080.615105,12879.583391,-77835.302597,-4145.153275
1080.617665,-2516.700203,-76303.111601,9326.594869
1080.620225,34493.596897,-73545.167808,14063.912898
1080.622785,6217.729913,-71706.538613,21465.972318
1080.625344,17764.942608,-73698.386908,13175.665768
1080.627904,-10066.800811,-76609.549800,296.082377
1080.630464,-0.000000,-76609.549800,-1184.329507
1080.633024,7846.182985,-71400.100414,-888.247130
1080.635584,-1332.370696,-73238.729609,13915.871710
1080.638143,27387.619854,-72779.072310,19541.436869
1080.640703,-0.000000,-76609.549800,13175.665768
1080.643263,15840.407159,-79673.931792,3404.947333
1080.645823,5921.647536,-75077.358804,10214.842000
1080.648385,19689.478057,-72012.976812,18653.189738
1080.650947,9030.512492,-70327.566716,18801.230927
1080.653509,3552.988522,-74770.920605,9918.759623
1080.656071,5625.565159,-76609.549800,2664.741391
1080.658633,11843.295072,-75077.358804,6957.935855
1080.661195,7105.977043,-74311.263306,5181.441594
1080.663757,-8290.306550,-73851.606007,15396.283594
1080.666319,-20873.807564,-76915.987999,-8734.430116
1080.668881,-3552.988522,-74004.825107,-10066.800811
1080.671443,-1036.288319,-73851.606007,-12287.418637
1080.674005,-13027.624579,-72625.853210,-9326.594869
1080.676567,-1924.535449,-73545.167808,-1776.494261
1080.679129,-15988.448347,-73545.167808,-1184.329507
1080.681691,-14063.912898,-76456.330700,6069.688724
1080.684253,1628.453072,-76915.987999,-1776.494261
1080.686815,-13915.871710,-76609.549800,4145.153275
1080.689377,26499.372724,-73238.729609,7698.141797
1080.691939,-16728.654289,-70634.004916,-6661.853478
1080.694501,-30644.525999,-69867.909418,-5329.482782
1080.697063,11695.253884,-75843.454302,-13915.871710
1080.699625,-35825.967593,-77835.302597,-10658.965565
1080.702187,15396.283594,-74617.701505,-15692.365970
1080.704749,-22354.219448,-72625.853210,-2516.700203
1080.707311,11695.253884,-70940.443115,592.164754
1080.709873,-5773.606348,-75383.797003,-444.123565
1080.712435,5773.606348,-76915.987999,444.123565
1080.714997,6069.688724,-75996.673402,5329.482782
1080.717559,26943.496289,-72625.853210,21169.889941
1080.720121,9326.594869,-71706.538613,21021.848753
1080.722683,8142.265362,-74311.263306,11547.212695
1080.725245,-7994.224174,-77069.207099,1776.494261
1080.727807,2516.700203,-75537.016103,-3108.864956
1080.730369,8290.306550,-71246.881314,2072.576638
1080.732931,23686.590144,-71400.100414,14656.077652
1080.735493,1776.494261,-73698.386908,8290.306550
1080.738055,12731.542202,-75690.235202,444.123565
1080.740617,-592.164754,-78907.836294,-0.000000
1080.743179,10955.047942,-73851.606007,11547.212695
1080.745741,17320.819043,-70940.443115,15840.407159
1080.748303,2960.823768,-71400.100414,12583.501014
1080.750866,6957.935855,-75077.358804,5773.606348
1080.753430,-1184.329507,-76609.549800,2368.659014
1080.755994,10362.883188,-74464.482406,5181.441594
1080.758558,6661.853478,-72779.072310,10658.965565
1080.761122,-17024.736666,-73698.386908,5625.565159
1080.763686,-11547.212695,-75537.016103,-12731.542202
1080.766250,-18949.272115,-74004.825107,-17468.860231
1080.768813,2516.700203,-72472.634111,-12583.501014
1080.771377,-15100.201217,-73851.606007,-8438.347739
1080.773941,-2812.782580,-74004.825107,888.247130
1080.776505,-6069.688724,-72472.634111,-0.000000
1080.779069,-10658.965565,-75383.797003,-444.123565
1080.781633,-3849.070898,-75537.016103,-5625.565159
1080.784197,1184.329507,-75843.454302,148.041188
1080.786760,5329.482782,-72625.853210,3108.864956
1080.789324,-34493.596897,-71859.757712,-0.000000
1080.791888,-4145.153275,-72472.634111,-6069.688724
1080.794452,-17024.736666,-77069.207099,-15544.324782
1080.797016,-11843.295072,-75843.454302,-16728.654289
1080.799580,-2664.741391,-72625.853210,-13767.830521
1080.802144,-3552.988522,-71093.662214,-1036.288319
1080.804707,-7254.018232,-72932.291410,3997.112087
1080.807271,-2812.782580,-76609.549800,296.082377
1080.809835,8142.265362,-77528.864398,3701.029710
1080.812399,15840.407159,-74617.701505,13027.624579
1080.814963,23538.548956,-72012.976812,21021.848753
1080.817527,4885.359217,-72319.415011,16136.489536
1080.820091,1776.494261,-75843.454302,4589.276840
1080.822654,-9326.594869,-75996.673402,-2812.782580
1080.825218,-4293.194464,-72166.195912,-2664.741391
1080.827782,7402.059420,-71553.319513,5181.441594
1080.830346,17320.819043,-71706.538613,18061.024985
1080.832910,23094.425390,-72932.291410,4441.235652
1080.835474,-23834.631332,-79367.493593,-1628.453072
1080.838038,17468.860231,-77375.645298,8882.471304
1080.840601,2368.659014,-72625.853210,15988.448347
1080.843165,1036.288319,-71246.881314,15396.283594
1080.845729,19393.395680,-73238.729609,9178.553681
1080.848293,-4441.235652,-75996.673402,2220.617826
1080.850857,17912.983796,-75230.577904,8734.430116
1080.853422,1184.329507,-74158.044206,3108.864956
1080.855988,-11547.212695,-72779.072310,13027.624579
1080.858553,-14508.036463,-77528.864398,-10510.924376
1080.861119,-25018.960840,-73698.386908,-13915.871710
1080.863684,6365.771101,-72779.072310,-12879.583391
1080.866250,-22650.301825,-74158.044206,-8290.306550
1080.868815,296.082377,-74770.920605,148.041188
1080.871380,-13323.706956,-73085.510509,-2072.576638
1080.873946,-14804.118840,-72166.195912,2812.782580
1080.876511,12731.542202,-76456.330700,4737.318029
1080.879077,-10955.047942,-77988.521696,-6365.771101
1080.881642,-11991.336260,-73698.386908,444.123565
1080.884208,-10658.965565,-71093.662214,1924.535449
1080.886773,-19985.560434,-72012.976812,148.041188
1080.889339,-2368.659014,-76456.330700,-9030.512492
1080.891904,-16580.613101,-77528.864398,-16136.489536
1080.894469,-1776.494261,-74158.044206,-15248.242405
1080.897035,-10658.965565,-71246.881314,-4885.359217
1080.899600,-0.000000,-71246.881314,7254.018232
1080.902166,-11843.295072,-76762.768900,-6069.688724
1080.904731,10214.842000,-77682.083497,8586.388927
1080.907297,12287.418637,-76149.892501,9918.759623
1080.909862,23686.590144,-71246.881314,23686.590144
1080.912427,13471.748144,-73391.948708,18801.230927
1080.914993,-3849.070898,-75077.358804,9030.512492
1080.917558,444.123565,-76609.549800,-3256.906145
1080.920124,11991.336260,-73391.948708,-3997.112087
1080.922689,28423.908173,-69408.252119,5181.441594
1080.925255,22058.137072,-72779.072310,1628.453072
1080.927820,-4145.153275,-75843.454302,24278.754898
1080.930386,45152.562462,-78601.398095,5477.523971
1080.932951,-23686.590144,-78141.740796,3849.070898
1080.935516,38194.626607,-73391.948708,12731.542202
1080.938082,9474.636058,-71553.319513,10066.800811
1080.940647,-888.247130,-72932.291410,12879.583391
1080.943213,18653.189738,-75690.235202,2220.617826
1080.945778,-2220.617826,-74464.482406,10362.883188
1080.948344,16284.530724,-75537.016103,4885.359217
1080.950909,-24574.837274,-74464.482406,9178.553681
1080.953474,-6513.812290,-76762.768900,-8290.306550
1080.956041,-19837.519246,-73391.948708,-14508.036463
1080.958608,4293.194464,-71400.100414,-10658.965565
1080.961175,-18357.107362,-72932.291410,-11103.089130
1080.963742,-4589.276840,-75690.235202,-296.082377
1080.966309,-8882.471304,-73391.948708,-1184.329507
1080.968876,-9918.759623,-72319.415011,-1924.535449
1080.971443,888.247130,-75077.358804,-5921.647536
1080.974010,-11103.089130,-75843.454302,-148.041188
1080.976577,2368.659014,-71859.757712,-2516.700203
1080.979144,-10066.800811,-72932.291410,4589.276840
1080.981711,-20429.683999,-73391.948708,-4145.153275
1080.984278,-9770.718434,-76915.987999,-14656.077652
1080.986845,-9474.636058,-77222.426198,-18505.148550
1080.989412,148.041188,-73545.167808,-10214.842000
1080.991979,-2072.576638,-71553.319513,-1332.370696
1080.994546,-888.247130,-72012.976812,9474.636058
1080.997113,-6365.771101,-76609.549800,-5921.647536
1080.999680,2220.617826,-77222.426198,9030.512492
1081.002247,22354.219448,-74924.139704,9770.718434
1081.004813,17320.819043,-71246.881314,22206.178260
1081.007380,13323.706956,-72932.291410,16580.613101
1081.009947,-6809.894666,-75537.016103,5625.565159
1081.012514,-2072.576638,-76303.111601,-1924.535449
1081.015081,10510.924376,-70021.128517,-6809.894666
1081.017648,21614.013506,-69714.690318,3997.112087
1081.020215,2812.782580,-72779.072310,7550.100608
1081.022782,23686.590144,-74311.263306,7105.977043
1081.025349,-4885.359217,-80286.808190,2220.617826
1081.027916,11399.171507,-74924.139704,9030.512492
1081.030483,14804.118840,-70174.347617,11695.253884
1081.033050,3701.029710,-72012.976812,14211.954086
1081.035617,12435.459826,-74770.920605,7402.059420
1081.038184,11103.089130,-74924.139704,7550.100608
1081.040751,-1924.535449,-75077.358804,6513.812290
1081.043318,11547.212695,-74311.263306,11547.212695
1081.045885,-30940.608376,-76303.111601,-2072.576638
1081.048452,2220.617826,-75843.454302,-4885.359217
1081.051019,-18061.024985,-73545.167808,-17172.777854
1081.053586,-12287.418637,-71246.881314,-10066.800811
1081.056152,2664.741391,-74158.044206,-9326.594869
1081.058720,-26499.372724,-75230.577904,-740.205942
1081.061287,9622.677246,-75230.577904,5625.565159
1081.063855,-4885.359217,-74158.044206,-1036.288319
1081.066422,-1480.411884,-76915.987999,-5181.441594
1081.068989,-8142.265362,-76915.987999,1924.535449
1081.071557,-3997.112087,-70787.224015,-148.041188
1081.074124,-14804.118840,-72166.195912,592.164754
1081.076692,-21910.095883,-75230.577904,-7550.100608
1081.079259,-1480.411884,-75843.454302,-21169.889941
1081.081826,-15692.365970,-75537.016103,-16728.654289
1081.084394,1332.370696,-71706.538613,-6217.729913
1081.086961,-4145.153275,-70327.566716,6217.729913
1081.089529,-7105.977043,-73545.167808,5033.400406
1081.092096,6513.812290,-77069.207099,444.123565
1081.094663,4293.194464,-76915.987999,10066.800811
1081.097231,33605.349767,-73545.167808,18505.148550
1081.099798,3552.988522,-72625.853210,20873.807564
1081.102365,8734.430116,-74311.263306,11695.253884
1081.104933,-5773.606348,-76303.111601,-444.123565
1081.107500,-7254.018232,-75383.797003,-2368.659014
1081.110068,8290.306550,-72012.976812,6809.894666
1081.112635,24130.713709,-71400.100414,13175.665768
1081.115202,20429.683999,-71859.757712,5329.482782
1081.117770,-12435.459826,-77988.521696,-1480.411884
1081.120337,6217.729913,-77835.302597,3849.070898
1081.122905,148.041188,-74004.825107,15248.242405
1081.125472,13915.871710,-70940.443115,14952.160028
1081.128039,15396.283594,-72625.853210,8438.347739
1081.130607,2664.741391,-75230.577904,4589.276840
1081.133174,15988.448347,-75077.358804,8586.388927
1081.135742,-1332.370696,-75077.358804,5181.441594
1081.138309,-20873.807564,-75077.358804,6809.894666
1081.140876,-10362.883188,-77682.083497,-10510.924376
1081.143444,-11695.253884,-73238.729609,-7994.224174
1081.146011,6809.894666,-71246.881314,-14211.954086
1081.148578,-27979.784608,-72932.291410,-8882.471304
1081.151146,1480.411884,-75690.235202,1776.494261
1081.153713,-7105.977043,-74311.263306,-2220.617826
1081.156281,-17320.819043,-74311.263306,2220.617826
1081.158848,11103.089130,-75383.797003,9178.553681
1081.161416,-15840.407159,-77069.207099,148.041188
1081.163984,-7846.182985,-74311.263306,3256.906145
1081.166552,-1776.494261,-70940.443115,1628.453072
1081.169120,-27239.578666,-74770.920605,-8882.471304
1081.171688,-9918.759623,-75690.235202,-16580.613101
1081.174256,-1480.411884,-75996.673402,-19837.519246
1081.176824,-9178.553681,-72932.291410,-5329.482782
1081.179392,4885.359217,-70940.443115,740.205942
1081.181960,-11991.336260,-71553.319513,7550.100608
1081.184528,8882.471304,-76609.549800,-740.205942
1081.187096,3997.112087,-76149.892501,6365.771101
1081.189664,30644.525999,-74158.044206,19245.354492
1081.192232,7698.141797,-72779.072310,20873.807564
1081.194800,12287.418637,-74158.044206,13323.706956
1081.197368,-10658.965565,-77069.207099,148.041188
1081.199936,3404.947333,-73238.729609,-3404.947333
1081.202504,8882.471304,-71246.881314,-2516.700203
1081.205072,-8290.306550,-71706.538613,-5329.482782
