#time,accel_x,accel_y,accel_z
1204.505765,888.247130,-74311.263306,444.123565
1204.508326,-888.247130,-73698.386908,148.041188
1204.510888,-296.082377,-74158.044206,3108.864956
1204.513449,1480.411884,-74464.482406,3849.070898
1204.516010,-0.000000,-74158.044206,2368.659014
1204.518571,-444.123565,-74158.044206,2368.659014
1204.521132,444.123565,-74004.825107,148.041188
1204.523693,-1036.288319,-74158.044206,1628.453072
1204.526254,444.123565,-74464.482406,3256.906145
1204.528815,592.164754,-74311.263306,2072.576638
1204.531377,-148.041188,-74004.825107,444.123565
1204.533938,444.123565,-73545.167808,-0.000000
1204.536499,-296.082377,-74464.482406,1480.411884
1204.539060,-0.000000,-74158.044206,2960.823768
1204.541621,-5625.565159,-74770.920605,6809.894666
1204.544182,15248.242405,-73391.948708,-12435.459826
1204.546743,-6661.853478,-74770.920605,4145.153275
1204.549305,3108.864956,-73085.510509,-1332.370696
1204.551866,7846.182985,-75537.016103,-444.123565
1204.554427,-18505.148550,-76609.549800,-7994.224174
1204.556988,-592.164754,-75383.797003,-17468.860231
1204.559549,2072.576638,-74311.263306,-2072.576638
1204.562110,740.205942,-72319.415011,2220.617826
1204.564671,6957.935855,-71706.538613,5773.606348
1204.567232,5477.523971,-74924.139704,7994.224174
1204.569794,4145.153275,-77222.426198,-4737.318029
1204.572355,-3256.906145,-75537.016103,-7846.182985
1204.574916,-15396.283594,-72932.291410,8882.471304
1204.577477,1332.370696,-71246.881314,18209.066173
1204.580038,-1036.288319,-73698.386908,8438.347739
1204.582599,7846.182985,-74924.139704,3108.864956
1204.585160,888.247130,-76762.768900,-0.000000
1204.587722,-5625.565159,-75077.358804,3404.947333
1204.590283,-8882.471304,-72932.291410,8142.265362
1204.592844,-444.123565,-73238.729609,10955.047942
1204.595405,-18061.024985,-74311.263306,3701.029710
1204.597966,-4737.318029,-76762.768900,3404.947333
1204.600527,-8734.430116,-75537.016103,-1480.411884
1204.603088,888.247130,-73545.167808,-4589.276840
1204.605650,6069.688724,-73698.386908,11991.336260
1204.608211,-7994.224174,-74770.920605,1924.535449
1204.610776,-296.082377,-72779.072310,592.164754
1204.613339,15988.448347,-73085.510509,-1480.411884
1204.615903,-19541.436869,-75230.577904,8734.430116
1204.618466,-8882.471304,-75537.016103,2664.741391
1204.621030,-2516.700203,-73698.386908,12287.418637
1204.623593,-4737.318029,-72625.853210,7105.977043
1204.626157,7846.182985,-72472.634111,9178.553681
1204.628720,-8586.388927,-76915.987999,8142.265362
1204.631284,-11103.089130,-74311.263306,3404.947333
1204.633847,-3404.947333,-72932.291410,3256.906145
1204.636411,444.123565,-73391.948708,-2368.659014
1204.638974,-3108.864956,-73698.386908,148.041188
1204.641538,888.247130,-73851.606007,1924.535449
1204.644101,-7846.182985,-73085.510509,15840.407159
1204.646665,-10658.965565,-74004.825107,9030.512492
1204.649228,6217.729913,-75843.454302,7550.100608
1204.651792,-1776.494261,-75690.235202,148.041188
1204.654355,-4589.276840,-73851.606007,8142.265362
1204.656919,1480.411884,-73238.729609,5625.565159
1204.659482,4293.194464,-75690.235202,-6365.771101
1204.662046,-5773.606348,-75230.577904,-9918.759623
1204.664609,1924.535449,-73238.729609,6661.853478
1204.667173,2516.700203,-72932.291410,1776.494261
1204.669736,5921.647536,-75077.358804,1332.370696
1204.672300,296.082377,-77069.207099,740.205942
1204.674864,3404.947333,-75996.673402,-7994.224174
1204.677427,-2664.741391,-73698.386908,-1036.288319
1204.679991,7698.141797,-74158.044206,4145.153275
1204.682554,-2516.700203,-72319.415011,1332.370696
1204.685118,7254.018232,-74617.701505,-2368.659014
1204.687681,9622.677246,-75537.016103,-7402.059420
1204.690245,-1776.494261,-75690.235202,-4293.194464
1204.692808,-3256.906145,-73698.386908,2368.659014
1204.695372,-3997.112087,-73698.386908,2516.700203
1204.697935,-3256.906145,-75383.797003,-592.164754
1204.700499,1628.453072,-74464.482406,-5477.523971
1204.703062,4145.153275,-76915.987999,-11547.212695
1204.705626,7550.100608,-71706.538613,-1332.370696
1204.708189,-4885.359217,-75843.454302,3701.029710
1204.710753,-2072.576638,-71706.538613,5329.482782
1204.713289,-16580.613101,-74311.263306,-2072.576638
1204.715825,16432.571912,-75996.673402,-2368.659014
1204.718362,-6513.812290,-77222.426198,-6365.771101
1204.720898,-5921.647536,-76762.768900,-7550.100608
1204.723434,-1776.494261,-72779.072310,-4737.318029
1204.725971,1480.411884,-72779.072310,-592.164754
1204.728507,1480.411884,-74464.482406,-3404.947333
1204.731043,9622.677246,-76303.111601,-5477.523971
1204.733580,296.082377,-74311.263306,-8142.265362
1204.736116,-2664.741391,-74311.263306,-1924.535449
1204.738652,296.082377,-73851.606007,3256.906145
1204.741189,1036.288319,-73238.729609,4145.153275
1204.743725,7254.018232,-74464.482406,-2368.659014
1204.746262,10066.800811,-76303.111601,-6365.771101
1204.748798,4737.318029,-74617.701505,-12435.459826
1204.751334,-8142.265362,-73085.510509,-1924.535449
1204.753871,-2516.700203,-71246.881314,5921.647536
1204.756407,-740.205942,-73698.386908,18209.066173
1204.758943,148.041188,-74158.044206,12435.459826
1204.761480,-9326.594869,-77682.083497,15396.283594
1204.764016,9474.636058,-74924.139704,296.082377
1204.766552,-13767.830521,-74617.701505,6069.688724
1204.769089,-1776.494261,-74004.825107,3701.029710
1204.771625,-8290.306550,-72932.291410,13027.624579
1204.774161,-4441.235652,-73391.948708,2072.576638
1204.776698,-2368.659014,-73238.729609,6513.812290
1204.779234,-1628.453072,-75843.454302,592.164754
1204.781770,1776.494261,-74617.701505,888.247130
1204.784307,-8882.471304,-74464.482406,10955.047942
1204.786843,-3404.947333,-73851.606007,7698.141797
1204.789379,-11547.212695,-73238.729609,2220.617826
1204.791916,-17172.777854,-75537.016103,5625.565159
1204.794452,6217.729913,-77375.645298,6661.853478
1204.796988,-3108.864956,-70634.004916,-1036.288319
1204.799525,-0.000000,-72319.415011,-6809.894666
1204.802061,7105.977043,-73238.729609,11695.253884
1204.804597,-22502.260637,-75843.454302,2960.823768
1204.807134,9178.553681,-74464.482406,2220.617826
1204.809670,-16580.613101,-75996.673402,18653.189738
1204.812206,-2368.659014,-73391.948708,-9622.677246
1204.814750,-5181.441594,-74924.139704,13323.706956
1204.817293,-24870.919651,-74158.044206,9030.512492
1204.819836,-5625.565159,-72166.195912,10658.965565
1204.822380,-10955.047942,-76456.330700,17764.942608
1204.824923,2368.659014,-74617.701505,3997.112087
1204.827466,-8734.430116,-75077.358804,5921.647536
1204.830010,296.082377,-73698.386908,-6809.894666
1204.832553,-7105.977043,-74158.044206,2368.659014
1204.835096,-12583.501014,-74924.139704,10510.924376
1204.837640,1480.411884,-72779.072310,13323.706956
1204.840183,-4145.153275,-74924.139704,15100.201217
1204.842726,1628.453072,-75077.358804,3552.988522
1204.845270,1332.370696,-77222.426198,2516.700203
1204.847813,-5329.482782,-73545.167808,9918.759623
1204.850356,-1628.453072,-74158.044206,-5181.441594
1204.852900,-9770.718434,-74770.920605,-740.205942
1204.855443,10955.047942,-73391.948708,-7994.224174
1204.857986,17468.860231,-72625.853210,3108.864956
1204.860530,-11103.089130,-74004.825107,444.123565
1204.863073,17468.860231,-74770.920605,-2812.782580
1204.865616,-10362.883188,-77222.426198,5181.441594
1204.868160,6809.894666,-75383.797003,-4441.235652
1204.870703,10658.965565,-74158.044206,2368.659014
1204.873246,1776.494261,-74158.044206,-444.123565
1204.875790,-296.082377,-72625.853210,-4737.318029
1204.878333,13027.624579,-74004.825107,-3849.070898
1204.880876,-2220.617826,-74311.263306,-4885.359217
1204.883420,3108.864956,-75077.358804,-2812.782580
1204.885963,4145.153275,-74004.825107,-2072.576638
1204.888506,-4441.235652,-72012.976812,-2960.823768
1204.891050,15544.324782,-73698.386908,2960.823768
1204.893593,9030.512492,-74770.920605,296.082377
1204.896136,-9326.594869,-76915.987999,444.123565
1204.898679,6809.894666,-73391.948708,-3849.070898
1204.901223,-148.041188,-73545.167808,7698.141797
1204.903766,-17912.983796,-73851.606007,-4293.194464
1204.906309,24130.713709,-75996.673402,1332.370696
1204.908853,-5773.606348,-75690.235202,3552.988522
1204.911396,6661.853478,-75537.016103,-10510.924376
1204.913939,9474.636058,-73851.606007,-6365.771101
1204.916489,-4885.359217,-74924.139704,-1924.535449
1204.919038,17616.901420,-74464.482406,-5477.523971
1204.921588,296.082377,-75383.797003,444.123565
1204.924137,7402.059420,-73851.606007,-7402.059420
1204.926687,1332.370696,-73851.606007,3849.070898
1204.929236,-9030.512492,-75077.358804,3849.070898
1204.931786,4441.235652,-74464.482406,3108.864956
1204.934335,8882.471304,-75230.577904,1924.535449
1204.936884,10807.006753,-75077.358804,-13323.706956
1204.939434,-8142.265362,-74464.482406,-9770.718434
1204.941983,-5181.441594,-72932.291410,2960.823768
1204.944533,7550.100608,-72472.634111,3108.864956
1204.947082,-9770.718434,-72472.634111,5921.647536
1204.949632,-5921.647536,-76609.549800,6365.771101
1204.952181,7698.141797,-74617.701505,8586.388927
1204.954730,-15100.201217,-75077.358804,1628.453072
1204.957280,1776.494261,-74770.920605,3108.864956
1204.959829,-4441.235652,-73698.386908,8142.265362
1204.962379,-5625.565159,-73238.729609,1924.535449
1204.964928,-7402.059420,-72166.195912,6365.771101
1204.967478,1776.494261,-74770.920605,4293.194464
1204.970027,-592.164754,-75230.577904,5773.606348
1204.972576,-4293.194464,-75690.235202,7846.182985
1204.975126,1924.535449,-73238.729609,8290.306550
1204.977675,-11843.295072,-73238.729609,3701.029710
1204.980225,-22502.260637,-74770.920605,5329.482782
1204.982774,2812.782580,-76456.330700,8586.388927
1204.985324,-2960.823768,-74158.044206,9178.553681
1204.987873,-11547.212695,-74617.701505,-1924.535449
1204.990423,5033.400406,-73085.510509,8438.347739
1204.992972,-16876.695478,-75690.235202,888.247130
1204.995521,14359.995275,-73391.948708,-1332.370696
1204.998071,-1036.288319,-74924.139704,20577.725188
1205.000620,-2072.576638,-71859.757712,-5773.606348
1205.003170,3552.988522,-74158.044206,8438.347739
1205.005719,-888.247130,-74924.139704,8290.306550
1205.008269,-2072.576638,-72166.195912,5329.482782
1205.010818,-0.000000,-74311.263306,17764.942608
1205.013367,8142.265362,-72779.072310,6513.812290
1205.015917,-2220.617826,-75077.358804,-592.164754
1205.018472,-6661.853478,-73238.729609,-2960.823768
1205.021026,4441.235652,-73545.167808,2072.576638
1205.023581,-2812.782580,-74158.044206,14508.036463
1205.026136,-9770.718434,-74464.482406,13027.624579
1205.028691,9622.677246,-75537.016103,9770.718434
1205.031245,-148.041188,-77222.426198,5329.482782
1205.033800,-6513.812290,-74464.482406,13175.665768
1205.036355,10362.883188,-74158.044206,2220.617826
1205.038909,-19393.395680,-75077.358804,1924.535449
1205.041464,9326.594869,-74004.825107,-10214.842000
1205.044019,10362.883188,-72472.634111,7254.018232
1205.046574,-1480.411884,-74617.701505,-888.247130
1205.049128,13767.830521,-73545.167808,1628.453072
1205.051683,-2960.823768,-76915.987999,3552.988522
1205.054238,1184.329507,-75230.577904,-2664.741391
1205.056793,10066.800811,-74617.701505,5181.441594
1205.059347,-9770.718434,-74464.482406,-5921.647536
1205.061902,5033.400406,-72472.634111,-6957.935855
1205.064457,10807.006753,-74004.825107,-4293.194464
1205.067012,148.041188,-73851.606007,-7698.141797
1205.069566,5329.482782,-74464.482406,-740.205942
1205.072121,1628.453072,-74311.263306,-1184.329507
1205.074676,2812.782580,-73085.510509,-5625.565159
1205.077230,4885.359217,-71859.757712,-592.164754
1205.079785,-14656.077652,-76149.892501,-5773.606348
1205.082340,22206.178260,-72932.291410,-10510.924376
1205.084895,-17912.983796,-77222.426198,5773.606348
1205.087449,31236.690752,-73238.729609,-10510.924376
1205.090004,-22650.301825,-75383.797003,21465.972318
1205.092559,17024.736666,-71553.319513,-15100.201217
1205.095114,-5625.565159,-75690.235202,-5033.400406
1205.097668,-21021.848753,-77835.302597,-9622.677246
1205.100227,22798.343014,-71093.662214,-12435.459826
1205.102785,4441.235652,-73698.386908,-3997.112087
1205.105343,-5329.482782,-71859.757712,-9326.594869
1205.107901,16136.489536,-74158.044206,3701.029710
1205.110460,-6217.729913,-74004.825107,-3404.947333
1205.113018,3552.988522,-74924.139704,5329.482782
1205.115576,2072.576638,-75383.797003,-592.164754
1205.118135,-4293.194464,-74924.139704,-7550.100608
1205.120693,10066.800811,-74464.482406,-6365.771101
1205.123251,4293.194464,-72932.291410,-4737.318029
1205.125809,-5329.482782,-73085.510509,3552.988522
1205.128368,7105.977043,-72625.853210,3404.947333
1205.130926,-4737.318029,-74311.263306,5477.523971
1205.133484,-6069.688724,-75537.016103,7698.141797
1205.136043,592.164754,-74158.044206,18061.024985
1205.138601,-5181.441594,-74464.482406,9622.677246
1205.141159,2516.700203,-75537.016103,2664.741391
1205.143717,-9474.636058,-74158.044206,-1776.494261
1205.146276,-8142.265362,-72779.072310,4293.194464
1205.148834,-2072.576638,-72319.415011,12731.542202
1205.151392,-2220.617826,-74004.825107,8734.430116
1205.153951,1776.494261,-74617.701505,3701.029710
1205.156509,3552.988522,-75383.797003,1184.329507
1205.159067,-6069.688724,-74770.920605,6217.729913
1205.161625,-11843.295072,-73085.510509,10955.047942
1205.164184,-3701.029710,-74770.920605,9326.594869
1205.166742,-7846.182985,-75077.358804,-3849.070898
1205.169300,5921.647536,-73085.510509,-9030.512492
1205.171859,-296.082377,-74617.701505,11547.212695
1205.174417,-13323.706956,-74617.701505,6365.771101
1205.176975,-16136.489536,-73545.167808,5773.606348
1205.179533,17468.860231,-72319.415011,-740.205942
1205.182092,-11547.212695,-73391.948708,3552.988522
1205.184650,-7994.224174,-72779.072310,4441.235652
1205.187208,-0.000000,-75537.016103,15396.283594
1205.189767,-1332.370696,-75230.577904,9622.677246
1205.192325,5921.647536,-74617.701505,10362.883188
1205.194883,-3108.864956,-74617.701505,6513.812290
1205.197441,-10066.800811,-73545.167808,-4145.153275
1205.200000,2368.659014,-73391.948708,740.205942
1205.202561,-7105.977043,-73391.948708,3108.864956
1205.205122,-25018.960840,-72779.072310,10066.800811
1205.207684,8586.388927,-74924.139704,16136.489536
1205.210245,-592.164754,-75843.454302,4885.359217
1205.212806,-9622.677246,-75537.016103,1628.453072
1205.215368,4737.318029,-73851.606007,11547.212695
1205.217929,-11103.089130,-73085.510509,-3997.112087
1205.220490,12879.583391,-73851.606007,-6809.894666
1205.223052,9326.594869,-73851.606007,-13915.871710
1205.225613,-8882.471304,-72012.976812,-4293.194464
1205.228174,12139.377449,-74617.701505,2516.700203
1205.230736,1628.453072,-73698.386908,-740.205942
1205.233297,-6513.812290,-75843.454302,4589.276840
1205.235859,12731.542202,-75230.577904,-4441.235652
1205.238420,3108.864956,-74311.263306,-4885.359217
1205.240981,-3997.112087,-74311.263306,5329.482782
1205.243543,20281.642811,-73085.510509,-6069.688724
1205.246104,-7846.182985,-74004.825107,-3404.947333
1205.248665,15544.324782,-74770.920605,-10510.924376
1205.251227,19689.478057,-72779.072310,-5477.523971
1205.253788,-3256.906145,-72625.853210,-740.205942
1205.256349,13471.748144,-74158.044206,5181.441594
1205.258911,-11695.253884,-75383.797003,11251.130318
1205.261472,-9622.677246,-74617.701505,-14359.995275
1205.264033,15248.242405,-73698.386908,-2516.700203
1205.266595,-10807.006753,-74004.825107,-444.123565
1205.269156,10214.842000,-74158.044206,-10510.924376
1205.271717,15988.448347,-73851.606007,5477.523971
1205.274279,148.041188,-73851.606007,-8290.306550
1205.276840,24722.878463,-73085.510509,-7402.059420
1205.279401,3552.988522,-75383.797003,-11695.253884
1205.281963,-12583.501014,-73085.510509,-10362.883188
1205.284524,14952.160028,-74158.044206,3701.029710
1205.287085,444.123565,-73085.510509,1184.329507
1205.289647,-5329.482782,-74158.044206,4441.235652
1205.292208,12583.501014,-75230.577904,4589.276840
1205.294769,-740.205942,-75537.016103,-3552.988522
1205.297331,9178.553681,-75077.358804,-5329.482782
1205.299892,10214.842000,-74770.920605,-9178.553681
1205.302453,-21614.013506,-73545.167808,-4885.359217
1205.305018,10510.924376,-73238.729609,4737.318029
1205.307582,-444.123565,-73851.606007,11399.171507
1205.310146,-4145.153275,-74004.825107,5329.482782
1205.312710,-9474.636058,-76456.330700,21614.013506
1205.315274,5033.400406,-74924.139704,740.205942
1205.317839,-16432.571912,-75537.016103,11399.171507
1205.320403,2072.576638,-73391.948708,2516.700203
1205.322967,148.041188,-73698.386908,7994.224174
1205.325531,-10214.842000,-73851.606007,1332.370696
1205.328095,-3552.988522,-72625.853210,3997.112087
1205.330660,-1332.370696,-75383.797003,5033.400406
1205.333224,-1184.329507,-74617.701505,7105.977043
1205.335788,592.164754,-75383.797003,7846.182985
1205.338352,-6069.688724,-74464.482406,9918.759623
1205.340916,-26203.290347,-75230.577904,3997.112087
1205.343480,-10807.006753,-74004.825107,4293.194464
1205.346045,6069.688724,-74158.044206,13619.789333
1205.348609,-5921.647536,-75077.358804,7550.100608
1205.351173,3404.947333,-72779.072310,-3997.112087
1205.353737,2960.823768,-75077.358804,11103.089130
1205.356301,-19245.354492,-77528.864398,13027.624579
1205.358866,10066.800811,-72012.976812,3701.029710
1205.361430,7550.100608,-72319.415011,9030.512492
1205.363994,-296.082377,-72319.415011,4145.153275
1205.366558,5329.482782,-75383.797003,9474.636058
1205.369122,-5773.606348,-76456.330700,9326.594869
1205.371687,-1480.411884,-74004.825107,740.205942
1205.374251,1332.370696,-74617.701505,7550.100608
1205.376815,-4885.359217,-72472.634111,-4589.276840
1205.379379,-17468.860231,-72319.415011,11843.295072
1205.381943,2220.617826,-73851.606007,10510.924376
1205.384508,4885.359217,-76149.892501,7105.977043
1205.387072,-6365.771101,-77375.645298,7550.100608
1205.389636,4885.359217,-75230.577904,7254.018232
1205.392200,-13471.748144,-73545.167808,14211.954086
1205.394764,5329.482782,-74158.044206,1036.288319
1205.397329,20725.766376,-74924.139704,-13323.706956
1205.399893,-7994.224174,-73238.729609,-10214.842000
1205.402457,9030.512492,-72932.291410,-9030.512492
1205.405021,-1776.494261,-73545.167808,5033.400406
1205.407559,148.041188,-74158.044206,-148.041188
1205.410096,16876.695478,-75383.797003,-1480.411884
1205.412633,-5921.647536,-75383.797003,-444.123565
1205.415171,1924.535449,-75383.797003,-9178.553681
1205.417708,7402.059420,-74311.263306,2812.782580
1205.420246,1036.288319,-72932.291410,-3256.906145
1205.422783,11399.171507,-73391.948708,-4589.276840
1205.425320,-2960.823768,-75690.235202,-3997.112087
1205.427858,-10510.924376,-76303.111601,-7550.100608
1205.430395,-5181.441594,-73851.606007,-2220.617826
1205.432933,11991.336260,-75077.358804,-6809.894666
1205.435470,14063.912898,-73545.167808,3849.070898
1205.438007,1036.288319,-77222.426198,7846.182985
1205.440545,15248.242405,-73851.606007,3701.029710
1205.443082,-10807.006753,-75996.673402,8882.471304
1205.445620,10362.883188,-73238.729609,-10955.047942
1205.448157,-12139.377449,-75843.454302,-4441.235652
1205.450694,-8882.471304,-75843.454302,-10510.924376
1205.453232,4441.235652,-74004.825107,-3997.112087
1205.455769,11843.295072,-74158.044206,-8586.388927
1205.458307,740.205942,-72779.072310,2516.700203
1205.460844,5181.441594,-74617.701505,3701.029710
1205.463381,1628.453072,-74464.482406,1036.288319
1205.465919,1480.411884,-76303.111601,-6069.688724
1205.468456,7254.018232,-76303.111601,-4145.153275
1205.470994,5773.606348,-75230.577904,-4885.359217
1205.473531,592.164754,-73238.729609,-7550.100608
1205.476068,-15692.365970,-71246.881314,-296.082377
1205.478606,148.041188,-72472.634111,-2960.823768
1205.481143,1184.329507,-74311.263306,7402.059420
1205.483681,-16432.571912,-77069.207099,8438.347739
1205.486218,9178.553681,-73545.167808,12879.583391
1205.488755,-14359.995275,-75230.577904,10362.883188
1205.491293,3404.947333,-72625.853210,-8290.306550
1205.493830,-9326.594869,-74617.701505,5181.441594
1205.496368,-8438.347739,-73545.167808,4737.318029
1205.498905,1776.494261,-71400.100414,6661.853478
1205.501442,-7698.141797,-73851.606007,9326.594869
1205.503980,4441.235652,-74770.920605,888.247130
1205.506517,-4589.276840,-75537.016103,9770.718434
1205.509062,-1036.288319,-75077.358804,6365.771101
1205.511606,3849.070898,-73085.510509,9622.677246
1205.514151,-20133.601622,-73851.606007,-1332.370696
1205.516696,-4885.359217,-74464.482406,5329.482782
1205.519240,15248.242405,-72166.195912,-18801.230927
1205.521785,-0.000000,-72012.976812,21614.013506
1205.524329,-9030.512492,-73698.386908,-8142.265362
1205.526874,20281.642811,-71859.757712,1480.411884
1205.529419,-40267.203245,-77222.426198,11843.295072
1205.531963,8438.347739,-72472.634111,2220.617826
1205.534508,13323.706956,-73391.948708,20725.766376
1205.537052,-12731.542202,-72166.195912,2960.823768
1205.539597,10066.800811,-75230.577904,7105.977043
1205.542142,-11399.171507,-74464.482406,5773.606348
1205.544686,-1480.411884,-73391.948708,-5921.647536
1205.547231,-9474.636058,-72625.853210,15840.407159
1205.549775,-2960.823768,-72012.976812,4885.359217
1205.552320,3552.988522,-73545.167808,7698.141797
1205.554865,888.247130,-76609.549800,5773.606348
1205.557409,4293.194464,-75537.016103,-3552.988522
1205.559954,-14508.036463,-74004.825107,13323.706956
1205.562498,-1776.494261,-72319.415011,2960.823768
1205.565043,14063.912898,-73698.386908,-5773.606348
1205.567588,3552.988522,-74770.920605,-16432.571912
1205.570132,5181.441594,-72472.634111,-1184.329507
1205.572677,-5329.482782,-73545.167808,148.041188
1205.575221,16136.489536,-72472.634111,-3552.988522
1205.577766,-3404.947333,-75537.016103,7402.059420
1205.580311,5477.523971,-74924.139704,-10066.800811
1205.582855,5773.606348,-74158.044206,1480.411884
1205.585400,-2664.741391,-75230.577904,1036.288319
1205.587945,15100.201217,-73545.167808,-3404.947333
1205.590489,12139.377449,-73238.729609,2368.659014
1205.593034,-2664.741391,-73085.510509,-11103.089130
1205.595578,5477.523971,-75230.577904,-6809.894666
1205.598123,-19097.313304,-75077.358804,-4145.153275
1205.600668,13619.789333,-73851.606007,-10658.965565
1205.603212,-11991.336260,-75537.016103,25315.043216
1205.605757,-1628.453072,-75843.454302,-20429.683999
1205.608301,43524.109390,-73545.167808,-888.247130
1205.610853,-35825.967593,-75230.577904,23686.590144
1205.613404,21910.095883,-73545.167808,-15544.324782
1205.615955,12583.501014,-75537.016103,3849.070898
1205.618506,-5329.482782,-73085.510509,-20725.766376
1205.621057,21465.972318,-74158.044206,-5329.482782
1205.623608,-148.041188,-74004.825107,296.082377
1205.626160,8734.430116,-73085.510509,-4885.359217
1205.628711,2664.741391,-76149.892501,14656.077652
1205.631262,-1184.329507,-73698.386908,-2368.659014
1205.633813,6217.729913,-77375.645298,-6957.935855
1205.636364,4145.153275,-75996.673402,-3849.070898
1205.638915,9474.636058,-74464.482406,-6661.853478
1205.641466,-8438.347739,-72319.415011,-3108.864956
1205.644017,-2960.823768,-71400.100414,-3404.947333
1205.646568,3256.906145,-74770.920605,13767.830521
1205.649119,-4293.194464,-75077.358804,3997.112087
1205.651670,-11251.130318,-75843.454302,18505.148550
1205.654221,7550.100608,-75996.673402,8734.430116
1205.656772,-7402.059420,-74770.920605,10214.842000
1205.659323,-4885.359217,-74464.482406,148.041188
1205.661874,-2220.617826,-72779.072310,4441.235652
1205.664425,-3108.864956,-74158.044206,7254.018232
1205.666976,-2516.700203,-73238.729609,7254.018232
1205.669527,-592.164754,-74158.044206,6513.812290
1205.672078,1036.288319,-74770.920605,3404.947333
1205.674629,5181.441594,-75537.016103,5477.523971
1205.677180,296.082377,-73851.606007,10658.965565
1205.679731,4293.194464,-72625.853210,2072.576638
1205.682282,-13323.706956,-71859.757712,-5477.523971
1205.684833,5329.482782,-74158.044206,1628.453072
1205.687385,-1776.494261,-74004.825107,28275.866984
1205.689936,-18653.189738,-74004.825107,-8882.471304
1205.692487,27387.619854,-70021.128517,-3404.947333
1205.695038,-49445.756926,-79673.931792,20873.807564
1205.697589,11251.130318,-72012.976812,-1036.288319
1205.700140,-19245.354492,-76303.111601,24574.837274
1205.702691,4589.276840,-72625.853210,-1332.370696
1205.705242,1776.494261,-76762.768900,9326.594869
1205.707793,-8882.471304,-75843.454302,5033.400406
1205.710344,-5477.523971,-72932.291410,-3997.112087
1205.712900,-23094.425390,-72472.634111,16580.613101
1205.715455,9474.636058,-72625.853210,5033.400406
1205.718011,-2220.617826,-75077.358804,11695.253884
1205.720567,1776.494261,-74311.263306,-1776.494261
1205.723123,-3997.112087,-75537.016103,6365.771101
1205.725679,-12287.418637,-74158.044206,12435.459826
1205.728234,6809.894666,-74770.920605,7105.977043
1205.730790,14211.954086,-75077.358804,-17320.819043
1205.733346,-5773.606348,-72779.072310,-7105.977043
1205.735902,17320.819043,-73085.510509,-8734.430116
1205.738458,-6661.853478,-72625.853210,-2368.659014
1205.741013,5181.441594,-74311.263306,-4293.194464
1205.743569,12731.542202,-75996.673402,-592.164754
1205.746125,-8142.265362,-75077.358804,-3108.864956
1205.748681,9178.553681,-74464.482406,-3849.070898
1205.751236,2368.659014,-75690.235202,3552.988522
1205.753792,2960.823768,-73851.606007,-4293.194464
1205.756348,3404.947333,-72166.195912,-1924.535449
1205.758904,-10658.965565,-74770.920605,-9474.636058
1205.761460,1480.411884,-73391.948708,-10807.006753
1205.764015,6661.853478,-73085.510509,-5033.400406
1205.766571,-12435.459826,-75383.797003,19837.519246
1205.769127,3256.906145,-76149.892501,-16876.695478
1205.771683,18061.024985,-74004.825107,4737.318029
1205.774239,-19985.560434,-78294.959896,4737.318029
1205.776794,40859.367998,-70174.347617,-14508.036463
1205.779350,-2516.700203,-76149.892501,4737.318029
1205.781906,6513.812290,-72779.072310,-20873.807564
1205.784462,-2220.617826,-74311.263306,-6217.729913
1205.787017,6957.935855,-73545.167808,-7254.018232
1205.789573,6069.688724,-73085.510509,-296.082377
1205.792129,-0.000000,-74158.044206,8882.471304
1205.794685,6957.935855,-74464.482406,-2072.576638
1205.797241,4441.235652,-75230.577904,-3256.906145
1205.799796,3256.906145,-74770.920605,-13175.665768
1205.802352,-888.247130,-74158.044206,-5477.523971
1205.804908,-444.123565,-71246.881314,2368.659014
1205.807464,5477.523971,-72166.195912,-3404.947333
1205.810020,-8142.265362,-72625.853210,3552.988522
1205.812575,-4293.194464,-74464.482406,888.247130
1205.815135,-11103.089130,-76609.549800,18357.107362
1205.817696,-8734.430116,-75690.235202,2812.782580
1205.820256,3404.947333,-73698.386908,6513.812290
1205.822816,-148.041188,-75077.358804,2516.700203
1205.825376,-15988.448347,-72319.415011,-1628.453072
1205.827936,296.082377,-73238.729609,8586.388927
1205.830496,-1924.535449,-72319.415011,1776.494261
1205.833056,-12287.418637,-73085.510509,5921.647536
1205.835616,4145.153275,-75690.235202,6809.894666
1205.838176,-5773.606348,-75537.016103,2960.823768
1205.840736,-20429.683999,-76149.892501,11695.253884
1205.843296,7846.182985,-72472.634111,-888.247130
1205.845856,5329.482782,-75690.235202,-444.123565
1205.848416,-16136.489536,-74770.920605,15692.365970
1205.850977,24870.919651,-72166.195912,-7402.059420
1205.853537,-24574.837274,-73851.606007,18653.189738
1205.856097,-19689.478057,-72625.853210,-1036.288319
1205.858657,28423.908173,-72319.415011,3108.864956
1205.861217,-30496.484810,-74158.044206,13767.830521
1205.863777,12287.418637,-73698.386908,4441.235652
1205.866337,-13323.706956,-75996.673402,18653.189738
1205.868897,1628.453072,-74004.825107,-3701.029710
1205.871457,-9918.759623,-75077.358804,5033.400406
1205.874017,-17024.736666,-72012.976812,8734.430116
1205.876577,740.205942,-72779.072310,7402.059420
1205.879137,6513.812290,-75230.577904,10510.924376
1205.881698,-2664.741391,-75077.358804,3256.906145
1205.884258,-0.000000,-74464.482406,6365.771101
1205.886818,-11991.336260,-73851.606007,14063.912898
1205.889378,3404.947333,-75996.673402,4145.153275
1205.891938,18801.230927,-75383.797003,-9918.759623
1205.894498,-9178.553681,-74464.482406,-5477.523971
1205.897058,9326.594869,-72166.195912,-5033.400406
1205.899618,8290.306550,-72932.291410,-296.082377
1205.902178,-11695.253884,-74158.044206,-5773.606348
1205.904738,14211.954086,-75230.577904,-148.041188
1205.907298,-7550.100608,-75996.673402,296.082377
1205.909858,7550.100608,-74158.044206,-3256.906145
1205.912418,13323.706956,-75077.358804,2516.700203
1205.914979,-6957.935855,-73085.510509,-11103.089130
1205.917513,4737.318029,-72166.195912,-2368.659014
1205.920048,17616.901420,-71553.319513,-5921.647536
1205.922582,3997.112087,-72779.072310,3108.864956
1205.925117,-11399.171507,-74464.482406,7105.977043
1205.927651,18949.272115,-72932.291410,-13323.706956
1205.930186,-4441.235652,-75996.673402,1776.494261
1205.932720,1184.329507,-75230.577904,-5477.523971
1205.935255,13619.789333,-74924.139704,3849.070898
1205.937789,-3256.906145,-75383.797003,-3108.864956
1205.940324,-4589.276840,-73391.948708,-12731.542202
1205.942858,-6957.935855,-75537.016103,-11547.212695
1205.945393,13619.789333,-74004.825107,-6957.935855
1205.947927,-1480.411884,-74311.263306,-740.205942
1205.950462,2664.741391,-74464.482406,2220.617826
1205.952996,3256.906145,-74311.263306,3404.947333
1205.955531,5625.565159,-75537.016103,-4293.194464
1205.958065,7994.224174,-74924.139704,-5921.647536
1205.960600,10214.842000,-75537.016103,-9030.512492
1205.963134,-7402.059420,-71400.100414,-9622.677246
1205.965669,2516.700203,-70634.004916,-6661.853478
1205.968203,-4589.276840,-72319.415011,10658.965565
1205.970738,-4441.235652,-74617.701505,4589.276840
1205.973272,-12879.583391,-74617.701505,20133.601622
1205.975807,5329.482782,-75537.016103,3552.988522
1205.978341,-4293.194464,-75690.235202,8290.306550
1205.980876,-5773.606348,-75077.358804,-1776.494261
1205.983410,-4145.153275,-72472.634111,4737.318029
1205.985945,-3701.029710,-73391.948708,10510.924376
1205.988479,-2072.576638,-72779.072310,9326.594869
1205.991014,-3997.112087,-73545.167808,5033.400406
1205.993548,3997.112087,-76149.892501,2664.741391
1205.996083,2812.782580,-75230.577904,6217.729913
1205.998617,-9326.594869,-72472.634111,6069.688724
1206.001152,-13323.706956,-74004.825107,12583.501014
1206.003686,-17024.736666,-74770.920605,-2220.617826
1206.006221,3849.070898,-73851.606007,-14063.912898
1206.008755,17024.736666,-75230.577904,9770.718434
1206.011290,-29164.114115,-76609.549800,15988.448347
1206.013824,19837.519246,-72625.853210,1776.494261
1206.016359,-27239.578666,-75077.358804,16432.571912
1206.018901,-14952.160028,-74464.482406,148.041188
1206.021444,3552.988522,-76303.111601,16580.613101
1206.023987,-9622.677246,-75230.577904,2516.700203
1206.026530,-2072.576638,-74158.044206,3849.070898
1206.029072,-7698.141797,-74464.482406,14804.118840
1206.031615,-14804.118840,-72166.195912,1776.494261
1206.034158,1776.494261,-73238.729609,10807.006753
1206.036700,4589.276840,-75077.358804,5921.647536
1206.039243,2516.700203,-75077.358804,296.082377
1206.041786,-7550.100608,-72625.853210,14952.160028
1206.044328,-12139.377449,-74158.044206,-2664.741391
1206.046871,12879.583391,-75996.673402,-11103.089130
1206.049414,4589.276840,-75537.016103,-4293.194464
1206.051956,16432.571912,-72625.853210,-8586.388927
1206.054499,-11251.130318,-74158.044206,-2812.782580
1206.057042,11251.130318,-71859.757712,-8438.347739
1206.059585,-5921.647536,-74311.263306,5625.565159
1206.062127,4441.235652,-75690.235202,-2072.576638
1206.064670,16432.571912,-73698.386908,-888.247130
1206.067213,-3849.070898,-75383.797003,-2812.782580
1206.069755,3552.988522,-72472.634111,-7402.059420
1206.072298,7994.224174,-74311.263306,296.082377
1206.074841,13027.624579,-71553.319513,-4145.153275
1206.077383,8586.388927,-75690.235202,888.247130
1206.079926,592.164754,-72166.195912,-7550.100608
1206.082469,-5033.400406,-73391.948708,2368.659014
1206.085012,15692.365970,-75537.016103,-1628.453072
1206.087554,-1332.370696,-75843.454302,6069.688724
1206.090097,4737.318029,-75383.797003,-10807.006753
1206.092640,16728.654289,-73545.167808,-10510.924376
1206.095182,-7994.224174,-75690.235202,-9622.677246
1206.097725,14063.912898,-73545.167808,-4441.235652
1206.100268,8586.388927,-72625.853210,1332.370696
1206.102810,1628.453072,-73391.948708,-3404.947333
1206.105353,5477.523971,-72779.072310,2220.617826
1206.107896,10658.965565,-74770.920605,-5033.400406
1206.110438,-3701.029710,-75996.673402,-3849.070898
1206.112981,15988.448347,-75077.358804,-6957.935855
1206.115524,-8438.347739,-74004.825107,-9770.718434
1206.118067,-11103.089130,-72319.415011,-3701.029710
1206.120617,7550.100608,-71859.757712,-888.247130
1206.123166,-5625.565159,-74004.825107,9918.759623
1206.125716,-12435.459826,-75077.358804,8586.388927
1206.128266,1480.411884,-74464.482406,17024.736666
1206.130816,-13027.624579,-75383.797003,1184.329507
1206.133366,4293.194464,-74464.482406,-1480.411884
1206.135916,-6809.894666,-75383.797003,5181.441594
1206.138466,-6957.935855,-72472.634111,2072.576638
1206.141016,-5329.482782,-72625.853210,10658.965565
1206.143566,-8734.430116,-72932.291410,8142.265362
1206.146116,-3108.864956,-74004.825107,2812.782580
1206.148666,10362.883188,-76303.111601,5477.523971
1206.151216,1776.494261,-71859.757712,6661.853478
1206.153766,8438.347739,-73085.510509,13767.830521
1206.156316,-15396.283594,-73391.948708,10214.842000
1206.158866,-12583.501014,-75230.577904,-6661.853478
1206.161416,10362.883188,-74617.701505,-1036.288319
1206.163966,-5773.606348,-73391.948708,888.247130
1206.166516,-15544.324782,-74924.139704,11103.089130
1206.169066,-10955.047942,-74617.701505,12731.542202
1206.171616,-10955.047942,-73085.510509,11843.295072
1206.174166,444.123565,-74311.263306,7846.182985
1206.176716,4293.194464,-75690.235202,4441.235652
1206.179266,-13619.789333,-74617.701505,4293.194464
1206.181816,-7254.018232,-74311.263306,11399.171507
1206.184366,-12731.542202,-73391.948708,7550.100608
1206.186916,-4293.194464,-74004.825107,7698.141797
1206.189466,4885.359217,-75230.577904,7994.224174
1206.192016,5921.647536,-74311.263306,2516.700203
1206.194565,-5477.523971,-73085.510509,9326.594869
1206.197115,-2812.782580,-75690.235202,2368.659014
1206.199665,8438.347739,-76456.330700,-12287.418637
1206.202215,740.205942,-75690.235202,-2960.823768
1206.204765,17912.983796,-72779.072310,-7105.977043
1206.207315,-4145.153275,-72779.072310,-6513.812290
1206.209865,4589.276840,-72932.291410,-7846.182985
1206.212415,1332.370696,-73851.606007,2960.823768
1206.214965,-1036.288319,-75690.235202,148.041188
1206.217515,9918.759623,-74158.044206,148.041188
1206.220065,-148.041188,-75383.797003,148.041188
1206.222621,4589.276840,-74158.044206,-9622.677246
1206.225177,-9622.677246,-75690.235202,-1036.288319
1206.227733,5181.441594,-75843.454302,-0.000000
1206.230290,6217.729913,-75996.673402,4737.318029
1206.232846,-17468.860231,-74311.263306,22354.219448
1206.235402,-2516.700203,-73698.386908,-19393.395680
1206.237958,33457.308578,-73698.386908,-0.000000
1206.240514,-38342.667796,-77222.426198,9030.512492
1206.243070,39823.079680,-74617.701505,-15840.407159
1206.245626,-5477.523971,-76149.892501,-740.205942
1206.248182,11547.212695,-71706.538613,-25463.084405
1206.250739,8586.388927,-73085.510509,5477.523971
1206.253295,-3256.906145,-74004.825107,1628.453072
1206.255851,7846.182985,-73391.948708,-592.164754
1206.258407,6809.894666,-77069.207099,8734.430116
1206.260963,5773.606348,-74464.482406,-9474.636058
1206.263519,2812.782580,-77222.426198,-4145.153275
1206.266075,-592.164754,-73851.606007,-4441.235652
1206.268631,-888.247130,-74004.825107,-2516.700203
1206.271187,4589.276840,-72779.072310,-2220.617826
1206.273744,-3552.988522,-73391.948708,3404.947333
1206.276300,-592.164754,-74770.920605,4589.276840
1206.278856,-13323.706956,-74004.825107,20281.642811
1206.281412,-1480.411884,-74770.920605,7698.141797
1206.283968,1776.494261,-74770.920605,6365.771101
1206.286524,-2220.617826,-75230.577904,-2368.659014
1206.289080,-9326.594869,-72166.195912,-2960.823768
1206.291636,-7846.182985,-72472.634111,6513.812290
1206.294192,-4145.153275,-73085.510509,12583.501014
1206.296749,-5033.400406,-74311.263306,7994.224174
1206.299305,2072.576638,-75077.358804,5625.565159
1206.301861,-1184.329507,-75537.016103,1924.535449
1206.304421,-6957.935855,-72166.195912,1480.411884
1206.306982,9474.636058,-72625.853210,-5181.441594
1206.309543,13471.748144,-74158.044206,1332.370696
1206.312103,-5033.400406,-74924.139704,3404.947333
1206.314664,-6217.729913,-74004.825107,6957.935855
1206.317224,-3701.029710,-74924.139704,4885.359217
1206.319785,-19689.478057,-75230.577904,11991.336260
1206.322345,-3997.112087,-72319.415011,10362.883188
1206.324906,1776.494261,-74311.263306,12879.583391
1206.327467,-8734.430116,-75230.577904,4293.194464
1206.330027,-8734.430116,-73698.386908,1332.370696
1206.332588,-8438.347739,-74464.482406,12139.377449
1206.335148,592.164754,-73545.167808,7105.977043
1206.337709,-2220.617826,-73698.386908,2516.700203
1206.340270,-2072.576638,-74158.044206,-1776.494261
1206.342830,-4293.194464,-73545.167808,9326.594869
1206.345391,-7550.100608,-74158.044206,5625.565159
1206.347951,15840.407159,-75383.797003,-740.205942
1206.350512,7254.018232,-75843.454302,-12583.501014
1206.353072,-2664.741391,-73391.948708,-1776.494261
1206.355633,13619.789333,-73085.510509,-3552.988522
1206.358194,-1924.535449,-72012.976812,-8438.347739
1206.360754,-7550.100608,-73698.386908,-1332.370696
1206.363315,20577.725188,-74770.920605,-3404.947333
1206.365875,-5773.606348,-74158.044206,888.247130
1206.368436,7550.100608,-74464.482406,-4293.194464
1206.370997,6365.771101,-74464.482406,740.205942
1206.373557,-17468.860231,-74924.139704,-6809.894666
1206.376118,19985.560434,-76303.111601,-1776.494261
1206.378678,296.082377,-74311.263306,-17320.819043
1206.381239,-1036.288319,-73238.729609,-13175.665768
1206.383799,7698.141797,-73545.167808,14063.912898
1206.386360,-11695.253884,-74311.263306,-10362.883188
1206.388921,18949.272115,-72472.634111,-9326.594869
1206.391481,1776.494261,-76149.892501,-148.041188
1206.394042,7846.182985,-72012.976812,-19689.478057
1206.396602,12731.542202,-72779.072310,-2368.659014
1206.399163,-2812.782580,-72166.195912,-18801.230927
1206.401724,-7105.977043,-73391.948708,-2072.576638
1206.404284,6365.771101,-74464.482406,888.247130
1206.406845,7254.018232,-75537.016103,-3997.112087
1206.409405,6661.853478,-75383.797003,-740.205942
1206.411966,13027.624579,-75077.358804,-9474.636058
1206.414526,-13767.830521,-75077.358804,-7550.100608
1206.417087,888.247130,-74158.044206,2072.576638
1206.419648,11399.171507,-73545.167808,-3849.070898
1206.422208,-7698.141797,-74464.482406,7698.141797
1206.424769,-6957.935855,-74617.701505,10362.883188
1206.427333,888.247130,-73698.386908,15248.242405
1206.429897,-15988.448347,-74464.482406,4885.359217
1206.432462,7698.141797,-74464.482406,1480.411884
1206.435026,-10510.924376,-75996.673402,6069.688724
1206.437590,-3404.947333,-73698.386908,444.123565
1206.440155,-6957.935855,-71859.757712,3552.988522
1206.442719,-13175.665768,-73545.167808,7846.182985
1206.445283,148.041188,-74158.044206,4293.194464
1206.447848,5329.482782,-77682.083497,6513.812290
1206.450412,-20133.601622,-74311.263306,8438.347739
1206.452976,-15396.283594,-75077.358804,2960.823768
1206.455541,-4145.153275,-73698.386908,-2368.659014
1206.458105,-12287.418637,-75537.016103,9770.718434
1206.460670,2072.576638,-75077.358804,9326.594869
1206.463234,3701.029710,-73545.167808,6365.771101
1206.465798,4293.194464,-73698.386908,6513.812290
1206.468363,-8438.347739,-73085.510509,8290.306550
1206.470927,-10066.800811,-72932.291410,8290.306550
1206.473491,-5181.441594,-73391.948708,9622.677246
1206.476056,-8586.388927,-75383.797003,8586.388927
1206.478620,-4737.318029,-73391.948708,10362.883188
1206.481184,-1036.288319,-73545.167808,5921.647536
1206.483749,-8290.306550,-73545.167808,-3404.947333
1206.486313,2368.659014,-73238.729609,4145.153275
1206.488877,1924.535449,-73698.386908,7254.018232
1206.491442,-11399.171507,-72319.415011,8882.471304
1206.494006,8734.430116,-75537.016103,3701.029710
1206.496570,10955.047942,-77528.864398,-12731.542202
1206.499135,-2664.741391,-74311.263306,-2960.823768
1206.501699,7550.100608,-74770.920605,-7254.018232
1206.504263,-5625.565159,-72779.072310,-4293.194464
1206.506828,-1332.370696,-74158.044206,-1776.494261
1206.509395,15692.365970,-74770.920605,-1924.535449
1206.511963,1776.494261,-75230.577904,2516.700203
1206.514531,7698.141797,-74924.139704,-1924.535449
1206.517098,4737.318029,-74311.263306,-2220.617826
1206.519666,-13915.871710,-75230.577904,-3256.906145
1206.522234,7550.100608,-76303.111601,1036.288319
1206.524802,19541.436869,-75843.454302,-3404.947333
1206.527369,-7550.100608,-74004.825107,10362.883188
1206.529937,12583.501014,-73545.167808,-7105.977043
1206.532505,1628.453072,-73391.948708,16136.489536
1206.535072,1776.494261,-77375.645298,-3997.112087
1206.537640,31384.731941,-74004.825107,-16580.613101
1206.540208,-1332.370696,-74464.482406,-5033.400406
1206.542776,6957.935855,-71859.757712,-15396.283594
1206.545343,17320.819043,-74464.482406,4737.318029
1206.547911,-6365.771101,-74770.920605,-3404.947333
1206.550479,9178.553681,-74158.044206,1480.411884
1206.553046,15100.201217,-75383.797003,-3997.112087
1206.555614,4293.194464,-74770.920605,-10658.965565
1206.558182,1332.370696,-74617.701505,-1628.453072
1206.560750,10658.965565,-73851.606007,-2664.741391
1206.563317,-18209.066173,-72779.072310,-5181.441594
1206.565885,10362.883188,-74464.482406,5773.606348
1206.568453,1628.453072,-74617.701505,8734.430116
1206.571020,-19245.354492,-75230.577904,13619.789333
1206.573588,17172.777854,-73698.386908,7994.224174
1206.576156,-9622.677246,-75383.797003,14952.160028
1206.578724,-7550.100608,-74311.263306,-3997.112087
1206.581291,4589.276840,-73698.386908,8882.471304
1206.583859,-15840.407159,-73698.386908,5773.606348
1206.586427,-4737.318029,-71553.319513,6513.812290
1206.588994,-8290.306550,-74004.825107,9326.594869
1206.591562,-888.247130,-75077.358804,4737.318029
1206.594130,2664.741391,-78294.959896,3997.112087
1206.596698,-4293.194464,-77069.207099,19393.395680
1206.599265,-22650.301825,-73391.948708,8438.347739
1206.601833,-1924.535449,-73545.167808,-3404.947333
1206.604401,1628.453072,-73698.386908,11399.171507
1206.606968,-20429.683999,-77528.864398,9474.636058
1206.609536,7846.182985,-74924.139704,5921.647536
1206.612106,-9474.636058,-74311.263306,17912.983796
1206.614676,-11103.089130,-72932.291410,8586.388927
1206.617246,1036.288319,-72472.634111,11991.336260
1206.619815,-20133.601622,-73238.729609,8290.306550
1206.622385,-1924.535449,-74311.263306,9326.594869
1206.624955,1776.494261,-76303.111601,10807.006753
1206.627524,-2812.782580,-73698.386908,-1332.370696
1206.630094,-7846.182985,-74158.044206,-0.000000
1206.632664,-9178.553681,-71553.319513,3997.112087
1206.635233,-2368.659014,-72625.853210,13915.871710
1206.637803,5921.647536,-75843.454302,2960.823768
1206.640373,18949.272115,-76762.768900,-6513.812290
1206.642942,-2960.823768,-75383.797003,-6365.771101
1206.645512,5477.523971,-72166.195912,-11251.130318
1206.648081,4589.276840,-73545.167808,2368.659014
1206.650651,6809.894666,-74158.044206,-9918.759623
1206.653221,5773.606348,-74770.920605,-4145.153275
1206.655790,8586.388927,-74617.701505,-3108.864956
1206.658360,6513.812290,-75077.358804,-1480.411884
1206.660930,-2812.782580,-75077.358804,2960.823768
1206.663499,2960.823768,-74004.825107,-5773.606348
1206.666069,-16136.489536,-75843.454302,-1036.288319
1206.668639,15840.407159,-76762.768900,3849.070898
1206.671208,3404.947333,-74311.263306,5625.565159
1206.673778,-10510.924376,-73391.948708,3256.906145
1206.676348,8438.347739,-73698.386908,-10066.800811
1206.678917,5477.523971,-76915.987999,-5033.400406
1206.681487,-10658.965565,-76149.892501,-4293.194464
1206.684056,20133.601622,-75230.577904,-7846.182985
1206.686626,-18209.066173,-73851.606007,-13323.706956
1206.689196,-7698.141797,-72932.291410,-3404.947333
1206.691765,14952.160028,-74770.920605,1924.535449
1206.694335,-4145.153275,-74311.263306,-7846.182985
1206.696905,16284.530724,-75996.673402,-0.000000
1206.699474,14656.077652,-76149.892501,-6365.771101
1206.702044,-10955.047942,-73698.386908,-1036.288319
1206.704614,4885.359217,-73391.948708,2960.823768
1206.707183,-3701.029710,-73545.167808,-11991.336260
1206.709753,-11399.171507,-73851.606007,4885.359217
1206.712323,3997.112087,-75077.358804,1628.453072
1206.714894,-9326.594869,-74617.701505,17764.942608
1206.717465,-10510.924376,-74617.701505,13175.665768
1206.720037,14656.077652,-73851.606007,296.082377
1206.722608,-17024.736666,-75230.577904,1628.453072
1206.725180,5773.606348,-72932.291410,-2072.576638
1206.727751,-2812.782580,-72625.853210,7846.182985
1206.730323,-11399.171507,-72472.634111,11399.171507
1206.732894,-1184.329507,-74924.139704,6513.812290
1206.735465,-9918.759623,-77528.864398,3849.070898
1206.738037,-9770.718434,-74158.044206,-4293.194464
1206.740608,8142.265362,-73698.386908,-3997.112087
1206.743180,2812.782580,-72779.072310,9918.759623
1206.745751,-3108.864956,-74158.044206,3997.112087
1206.748323,-12731.542202,-72625.853210,6957.935855
1206.750894,148.041188,-74617.701505,2812.782580
1206.753465,5033.400406,-74770.920605,9326.594869
1206.756037,-6365.771101,-73545.167808,6365.771101
1206.758608,3849.070898,-72932.291410,10658.965565
1206.761180,-16728.654289,-73851.606007,10066.800811
1206.763751,-6957.935855,-73391.948708,10362.883188
1206.766323,296.082377,-74770.920605,4589.276840
1206.768894,2664.741391,-74770.920605,-2812.782580
1206.771465,-1332.370696,-74158.044206,3256.906145
1206.774037,-9030.512492,-73238.729609,9474.636058
1206.776608,-8882.471304,-72319.415011,11251.130318
1206.779180,7698.141797,-75537.016103,5921.647536
1206.781751,25463.084405,-76456.330700,-7994.224174
1206.784323,4441.235652,-75383.797003,1036.288319
1206.786894,3701.029710,-73851.606007,-11843.295072
1206.789465,-5625.565159,-72012.976812,-1184.329507
1206.792037,3552.988522,-73851.606007,-0.000000
1206.794608,12583.501014,-74464.482406,-1776.494261
1206.797180,3256.906145,-76149.892501,148.041188
1206.799751,13619.789333,-74617.701505,-4145.153275
1206.802323,-2516.700203,-74617.701505,-3256.906145
1206.804894,3404.947333,-73545.167808,-444.123565
1206.807465,10807.006753,-74617.701505,-4737.318029
1206.810037,148.041188,-73545.167808,-13767.830521
1206.812608,-4293.194464,-74924.139704,7550.100608
1206.815180,14804.118840,-74004.825107,-1036.288319
1206.817752,-5773.606348,-76149.892501,11251.130318
1206.820325,12139.377449,-74311.263306,-13027.624579
1206.822898,13767.830521,-73698.386908,-13323.706956
1206.825470,5625.565159,-73545.167808,-9474.636058
1206.828043,26203.290347,-72166.195912,-11399.171507
1206.830616,-9474.636058,-72932.291410,-6513.812290
1206.833188,11399.171507,-73545.167808,-4885.359217
1206.835761,6069.688724,-75230.577904,-6513.812290
1206.838334,9918.759623,-74617.701505,-5773.606348
1206.840906,10362.883188,-74158.044206,-5625.565159
1206.843479,-8882.471304,-72472.634111,-4145.153275
1206.846052,-5329.482782,-72166.195912,-10214.842000
1206.848624,-1628.453072,-74311.263306,6365.771101
1206.851197,-4737.318029,-74004.825107,2072.576638
1206.853770,-10510.924376,-74004.825107,18061.024985
1206.856342,1776.494261,-73391.948708,2516.700203
1206.858915,592.164754,-74004.825107,5773.606348
1206.861488,-5921.647536,-75690.235202,740.205942
1206.864060,-1776.494261,-74004.825107,3404.947333
1206.866633,-15544.324782,-73545.167808,10510.924376
1206.869206,-1776.494261,-72166.195912,3701.029710
1206.871778,-4441.235652,-74004.825107,7550.100608
1206.874351,4737.318029,-74004.825107,5773.606348
1206.876924,10658.965565,-76149.892501,10362.883188
1206.879496,9918.759623,-74617.701505,4145.153275
1206.882069,-34197.514520,-73698.386908,13175.665768
1206.884642,10658.965565,-73391.948708,-22798.343014
1206.887214,-8734.430116,-71246.881314,15396.283594
1206.889787,-23390.507767,-75230.577904,3701.029710
1206.892360,21614.013506,-73238.729609,10955.047942
1206.894932,-18949.272115,-76609.549800,18061.024985
1206.897505,10955.047942,-73238.729609,-4293.194464
1206.900077,-6069.688724,-74464.482406,20429.683999
1206.902650,-19985.560434,-72932.291410,2516.700203
1206.905223,4293.194464,-74311.263306,6365.771101
1206.907795,148.041188,-75843.454302,3256.906145
1206.910368,3256.906145,-74617.701505,-6513.812290
1206.912941,-22502.260637,-73698.386908,18801.230927
1206.915513,444.123565,-72012.976812,8586.388927
1206.918086,24426.796086,-75843.454302,1036.288319
1206.920660,7254.018232,-76762.768900,-6217.729913
1206.923233,12583.501014,-73391.948708,-6069.688724
1206.925807,-296.082377,-74464.482406,-6365.771101
1206.928381,-148.041188,-71553.319513,-5181.441594
1206.930955,4589.276840,-74158.044206,-444.123565
1206.933528,6661.853478,-73851.606007,-6513.812290
1206.936102,5329.482782,-74617.701505,-2220.617826
1206.938676,7698.141797,-75383.797003,-3256.906145
1206.941249,-6069.688724,-75383.797003,1480.411884
1206.943823,4145.153275,-75077.358804,-888.247130
1206.946397,148.041188,-72472.634111,-15544.324782
1206.948970,20133.601622,-74158.044206,-16136.489536
1206.951544,2072.576638,-73085.510509,9918.759623
1206.954118,740.205942,-72625.853210,-10362.883188
1206.956691,20133.601622,-75843.454302,-9030.512492
1206.959265,-10066.800811,-77069.207099,592.164754
1206.961839,2368.659014,-74158.044206,-17172.777854
1206.964412,18061.024985,-73238.729609,592.164754
1206.966986,8290.306550,-73391.948708,-11547.212695
1206.969560,-8438.347739,-73085.510509,-3997.112087
1206.972133,20429.683999,-74770.920605,-7846.182985
1206.974707,7846.182985,-75996.673402,-7105.977043
1206.977281,-296.082377,-74924.139704,-5033.400406
1206.979854,6661.853478,-73545.167808,-1036.288319
1206.982428,-740.205942,-72166.195912,-3849.070898
1206.985002,-11399.171507,-72472.634111,-1480.411884
1206.987576,8882.471304,-74770.920605,5033.400406
1206.990149,-19245.354492,-75383.797003,9030.512492
1206.992723,3701.029710,-73391.948708,12287.418637
1206.995297,-2960.823768,-75077.358804,17912.983796
1206.997870,-1332.370696,-75690.235202,-2368.659014
1207.000444,-4737.318029,-75077.358804,9918.759623
1207.003018,3701.029710,-74464.482406,3849.070898
1207.005591,-24278.754898,-72779.072310,5921.647536
1207.008165,-5181.441594,-73545.167808,13915.871710
1207.010739,-0.000000,-75077.358804,3997.112087
1207.013312,-2664.741391,-76762.768900,9030.512492
1207.015886,-7105.977043,-74158.044206,13767.830521
1207.018460,-5625.565159,-75383.797003,-5625.565159
1207.021033,-3849.070898,-73545.167808,2664.741391
1207.023608,2664.741391,-72472.634111,12287.418637
1207.026182,-18949.272115,-74004.825107,10214.842000
1207.028757,-5477.523971,-75843.454302,10955.047942
1207.031331,5181.441594,-75230.577904,14952.160028
1207.033906,-16728.654289,-74924.139704,13619.789333
1207.036480,-2368.659014,-73238.729609,20725.766376
1207.039055,740.205942,-74464.482406,6365.771101
1207.041629,-12731.542202,-74158.044206,7698.141797
1207.044204,7550.100608,-75230.577904,-1480.411884
1207.046778,1628.453072,-74311.263306,2072.576638
1207.049353,-13175.665768,-73085.510509,14656.077652
1207.051927,-3404.947333,-74004.825107,9622.677246
1207.054501,13767.830521,-75537.016103,-4293.194464
1207.057076,3701.029710,-77069.207099,-9178.553681
1207.059650,15988.448347,-74158.044206,-2812.782580
1207.062225,-5033.400406,-74924.139704,-5477.523971
1207.064799,1184.329507,-71400.100414,-10066.800811
1207.067374,-296.082377,-73391.948708,-1184.329507
1207.069948,10955.047942,-74004.825107,-7402.059420
1207.072523,6957.935855,-74158.044206,-740.205942
1207.075097,11991.336260,-76149.892501,1924.535449
1207.077672,-2220.617826,-74617.701505,-2072.576638
1207.080246,-7994.224174,-72779.072310,-6365.771101
1207.082821,-6365.771101,-74770.920605,444.123565
1207.085395,11251.130318,-74464.482406,-11695.253884
1207.087969,27831.743419,-72779.072310,3701.029710
1207.090544,-12435.459826,-74924.139704,7254.018232
1207.093118,-5921.647536,-78141.740796,-6957.935855
1207.095693,10510.924376,-77375.645298,-592.164754
1207.098267,-148.041188,-75230.577904,-10510.924376
1207.100842,444.123565,-71706.538613,-14063.912898
1207.103416,2960.823768,-73238.729609,-1776.494261
1207.105991,7846.182985,-73851.606007,-4145.153275
1207.108565,444.123565,-75690.235202,-740.205942
1207.111140,11695.253884,-74617.701505,-5033.400406
1207.113714,-444.123565,-75077.358804,-1776.494261
1207.116289,-3552.988522,-72166.195912,-2072.576638
1207.118863,8290.306550,-73085.510509,-3552.988522
1207.121438,-7105.977043,-73391.948708,4293.194464
1207.124012,888.247130,-75077.358804,1776.494261
1207.126587,-1184.329507,-73698.386908,14804.118840
1207.129162,-9474.636058,-74311.263306,6365.771101
1207.131737,7698.141797,-73851.606007,2220.617826
1207.134312,-7254.018232,-76762.768900,5773.606348
1207.136887,-0.000000,-73851.606007,3256.906145
1207.139462,-11695.253884,-73698.386908,11843.295072
1207.142038,-6809.894666,-72319.415011,-740.205942
1207.144613,3108.864956,-72779.072310,8290.306550
1207.147188,4441.235652,-76915.987999,7550.100608
1207.149763,-3849.070898,-75230.577904,11103.089130
1207.152338,-592.164754,-73851.606007,-1924.535449
1207.154913,3404.947333,-73545.167808,-0.000000
1207.157488,-9622.677246,-72932.291410,8290.306550
1207.160063,-9326.594869,-73391.948708,9326.594869
1207.162638,-6957.935855,-75690.235202,11843.295072
1207.165213,-16580.613101,-74311.263306,14211.954086
1207.167788,-5329.482782,-73085.510509,11103.089130
1207.170363,-444.123565,-73545.167808,15692.365970
1207.172939,-16728.654289,-73698.386908,6957.935855
1207.175514,1628.453072,-73698.386908,9474.636058
1207.178089,1776.494261,-75383.797003,1628.453072
1207.180664,-5477.523971,-74158.044206,-1332.370696
1207.183239,-9326.594869,-73085.510509,12583.501014
1207.185814,-6809.894666,-73391.948708,3404.947333
1207.188389,13915.871710,-75383.797003,-6513.812290
1207.190964,6365.771101,-76303.111601,-5181.441594
1207.193539,9030.512492,-74617.701505,-4737.318029
1207.196114,-12435.459826,-75077.358804,-6957.935855
1207.198689,11103.089130,-72166.195912,-1332.370696
1207.201264,-740.205942,-74158.044206,-6217.729913
1207.203840,444.123565,-74464.482406,-7105.977043
1207.206415,14359.995275,-74464.482406,2072.576638
1207.208990,-296.082377,-75843.454302,1480.411884
1207.211565,5625.565159,-71859.757712,-2960.823768
1207.214140,26943.496289,-74770.920605,1036.288319
1207.216715,-296.082377,-72932.291410,1332.370696
1207.219290,592.164754,-73545.167808,-8290.306550
1207.221865,27979.784608,-72932.291410,-14063.912898
1207.224440,9326.594869,-74924.139704,-1480.411884
1207.227015,-11399.171507,-76915.987999,-1036.288319
1207.229590,14656.077652,-73851.606007,-13767.830521
1207.232165,-18209.066173,-74924.139704,-3849.070898
1207.234740,21614.013506,-72779.072310,-11991.336260
1207.237314,-8586.388927,-74311.263306,-148.041188
1207.239889,7550.100608,-73851.606007,-14211.954086
1207.242464,22206.178260,-74311.263306,-8734.430116
1207.245039,-8142.265362,-76456.330700,-740.205942
1207.247614,4737.318029,-73085.510509,1332.370696
1207.250188,13027.624579,-73391.948708,888.247130
1207.252763,-11399.171507,-72472.634111,-1480.411884
1207.255338,6809.894666,-72932.291410,-0.000000
1207.257913,-20429.683999,-75537.016103,10066.800811
1207.260487,-4441.235652,-74158.044206,6957.935855
1207.263062,2960.823768,-74770.920605,17764.942608
1207.265637,-1480.411884,-74770.920605,5033.400406
1207.268212,4145.153275,-74158.044206,3849.070898
1207.270787,-14508.036463,-73851.606007,3404.947333
1207.273361,-4737.318029,-72472.634111,8734.430116
1207.275936,-10362.883188,-74770.920605,16284.530724
1207.278511,2368.659014,-74924.139704,2516.700203
1207.281086,-8290.306550,-76303.111601,7698.141797
1207.283660,-296.082377,-75383.797003,-3997.112087
1207.286235,-5181.441594,-75383.797003,1628.453072
1207.288810,-10214.842000,-74311.263306,18801.230927
1207.291385,2960.823768,-71706.538613,8734.430116
1207.293960,6069.688724,-72779.072310,6513.812290
1207.296534,-7550.100608,-75383.797003,6809.894666
1207.299109,-1332.370696,-74770.920605,7994.224174
1207.301684,-11695.253884,-73545.167808,16284.530724
1207.304259,-8142.265362,-74617.701505,13323.706956
1207.306833,7402.059420,-74158.044206,11991.336260
1207.309408,-6069.688724,-74924.139704,-4737.318029
1207.311983,-4737.318029,-73391.948708,-2368.659014
1207.314558,-7698.141797,-72779.072310,16136.489536
1207.317133,-2516.700203,-74158.044206,9770.718434
1207.319707,18801.230927,-75996.673402,-1184.329507
1207.322282,740.205942,-75996.673402,-7994.224174
1207.324857,7105.977043,-74004.825107,-7550.100608
1207.327432,-5477.523971,-74004.825107,-3552.988522
1207.330006,5181.441594,-72012.976812,-11695.253884
1207.332581,-12435.459826,-73545.167808,-592.164754
1207.335156,25907.207970,-74158.044206,-3256.906145
1207.337730,6957.935855,-74004.825107,-148.041188
1207.340305,-13027.624579,-74924.139704,2368.659014
1207.342879,12287.418637,-74311.263306,-1480.411884
1207.345454,-17320.819043,-75690.235202,-3108.864956
1207.348028,12139.377449,-74004.825107,-3404.947333
1207.350603,3256.906145,-75230.577904,2368.659014
1207.353177,-11843.295072,-71400.100414,-15100.201217
1207.355752,20429.683999,-73238.729609,-10807.006753
1207.358327,1776.494261,-76149.892501,-7698.141797
1207.360901,6513.812290,-73085.510509,-16876.695478
1207.363476,17764.942608,-74924.139704,2960.823768
1207.366050,-4885.359217,-72319.415011,-11695.253884
1207.368625,10066.800811,-72472.634111,-6069.688724
1207.371199,8586.388927,-74770.920605,-4293.194464
1207.373774,6069.688724,-75690.235202,-8882.471304
1207.376349,592.164754,-75996.673402,148.041188
1207.378923,1480.411884,-73545.167808,-1480.411884
1207.381498,4885.359217,-71859.757712,-2220.617826
1207.384072,-8142.265362,-73238.729609,7105.977043
1207.386647,444.123565,-73698.386908,3108.864956
1207.389221,-11547.212695,-74311.263306,14508.036463
1207.391796,-2664.741391,-74464.482406,2516.700203
1207.394370,13323.706956,-73698.386908,592.164754
1207.396945,-12879.583391,-76149.892501,7846.182985
1207.399520,4441.235652,-73545.167808,7698.141797
1207.402094,-16284.530724,-74004.825107,12287.418637
1207.404669,-5921.647536,-72625.853210,-740.205942
1207.407243,11399.171507,-73238.729609,10955.047942
1207.409818,4293.194464,-75996.673402,5181.441594
1207.412392,-1036.288319,-73238.729609,10807.006753
1207.414967,-5921.647536,-75537.016103,9770.718434
1207.417541,-9326.594869,-71400.100414,-3256.906145
1207.420116,-4737.318029,-72625.853210,296.082377
1207.422691,-18209.066173,-73545.167808,12287.418637
1207.425265,-5033.400406,-75537.016103,11103.089130
1207.427840,-6809.894666,-75996.673402,22798.343014
1207.430414,-7994.224174,-75843.454302,13175.665768
1207.432989,740.205942,-74158.044206,7698.141797
1207.435563,-13619.789333,-73851.606007,8586.388927
1207.438137,9474.636058,-74158.044206,-2516.700203
1207.440712,-8734.430116,-74311.263306,-4737.318029
1207.443286,-13471.748144,-72319.415011,14952.160028
1207.445860,6957.935855,-73085.510509,7698.141797
1207.448435,7698.141797,-74617.701505,148.041188
1207.451009,19245.354492,-75383.797003,-8142.265362
1207.453583,17024.736666,-75690.235202,-5033.400406
1207.456158,-11991.336260,-73238.729609,-7698.141797
1207.458732,7105.977043,-74158.044206,-3404.947333
1207.461306,-148.041188,-73698.386908,-6809.894666
1207.463881,6661.853478,-74004.825107,-2072.576638
1207.466455,13915.871710,-74464.482406,-3404.947333
1207.469029,9178.553681,-75383.797003,1480.411884
1207.471604,-9622.677246,-76303.111601,1480.411884
1207.474178,-3701.029710,-73238.729609,-8586.388927
1207.476752,13323.706956,-73698.386908,-13471.748144
1207.479327,2220.617826,-73391.948708,8142.265362
1207.481901,7402.059420,-71553.319513,-7254.018232
1207.484475,9622.677246,-74924.139704,-5033.400406
1207.487049,-27091.537477,-77835.302597,-5773.606348
1207.489624,10510.924376,-74004.825107,-13619.789333
1207.492198,11251.130318,-73851.606007,-0.000000
1207.494772,4145.153275,-72166.195912,-5477.523971
1207.497347,11103.089130,-72779.072310,-8882.471304
1207.499921,-2220.617826,-75996.673402,-7105.977043
1207.502495,5921.647536,-74924.139704,-9918.759623
1207.505070,-4885.359217,-75996.673402,3849.070898
1207.507644,8290.306550,-73698.386908,-2368.659014
1207.510218,12287.418637,-73238.729609,4441.235652
1207.512793,-13471.748144,-74770.920605,9030.512492
1207.515367,-13471.748144,-72932.291410,-1480.411884
1207.517912,-3997.112087,-74617.701505,14952.160028
1207.520458,-8882.471304,-75383.797003,8882.471304
1207.523003,12731.542202,-75077.358804,3997.112087
1207.525548,-3849.070898,-75537.016103,7550.100608
1207.528094,-7254.018232,-72932.291410,1184.329507
1207.530639,-21910.095883,-72319.415011,10066.800811
1207.533184,888.247130,-73391.948708,9474.636058
1207.535729,9918.759623,-72166.195912,6069.688724
1207.538275,-19393.395680,-77375.645298,12879.583391
1207.540820,15544.324782,-73085.510509,-20429.683999
1207.543365,6069.688724,-74311.263306,12879.583391
1207.545911,-49297.715737,-73851.606007,19837.519246
1207.548456,-2812.782580,-72319.415011,-3108.864956
1207.551001,7846.182985,-75843.454302,15988.448347
1207.553547,-28571.949361,-75690.235202,8882.471304
1207.556092,8882.471304,-74924.139704,12583.501014
1207.558637,-23982.672521,-75690.235202,18505.148550
1207.561183,-1036.288319,-73545.167808,7105.977043
1207.563728,-740.205942,-75383.797003,14656.077652
1207.566273,-1776.494261,-73851.606007,-1776.494261
1207.568819,-7846.182985,-72472.634111,1480.411884
1207.571364,-8438.347739,-72932.291410,10955.047942
1207.573909,5033.400406,-74464.482406,6513.812290
1207.576454,16728.654289,-76303.111601,-1480.411884
1207.579000,592.164754,-74311.263306,-3997.112087
1207.581545,10362.883188,-73391.948708,-9474.636058
1207.584090,-10510.924376,-72932.291410,-1332.370696
1207.586636,8882.471304,-73851.606007,-4441.235652
1207.589181,6809.894666,-75077.358804,-1184.329507
1207.591726,7105.977043,-75077.358804,-5477.523971
1207.594272,10658.965565,-74004.825107,-592.164754
1207.596817,2812.782580,-74311.263306,-592.164754
1207.599362,10510.924376,-73238.729609,-1332.370696
1207.601908,6217.729913,-73085.510509,-5329.482782
1207.604453,296.082377,-74464.482406,2664.741391
1207.606998,6217.729913,-71400.100414,-10658.965565
1207.609544,21762.054695,-72319.415011,-2368.659014
1207.612089,-12287.418637,-76456.330700,-3552.988522
1207.614634,7105.977043,-75690.235202,-10066.800811
1207.617180,-5181.441594,-73698.386908,-11251.130318
1207.619730,4441.235652,-72319.415011,-11251.130318
1207.622281,9030.512492,-73391.948708,-8142.265362
1207.624831,6661.853478,-75383.797003,-5329.482782
1207.627382,5477.523971,-75537.016103,-4589.276840
1207.629932,-1924.535449,-75230.577904,-2664.741391
1207.632483,4737.318029,-72779.072310,-4737.318029
1207.635033,7254.018232,-73238.729609,1480.411884
1207.637583,-8290.306550,-73698.386908,9178.553681
1207.640134,-4737.318029,-74004.825107,4441.235652
1207.642684,2220.617826,-73085.510509,12435.459826
1207.645235,-8586.388927,-75537.016103,9030.512492
1207.647785,9770.718434,-74770.920605,-3701.029710
1207.650336,-6069.688724,-75077.358804,7698.141797
1207.652886,-5921.647536,-73545.167808,7105.977043
1207.655436,-10066.800811,-73085.510509,12583.501014
1207.657987,-23242.466579,-74464.482406,2664.741391
1207.660537,5477.523971,-74311.263306,1036.288319
1207.663088,17468.860231,-76149.892501,2516.700203
1207.665638,-16728.654289,-75230.577904,12879.583391
1207.668189,7402.059420,-72779.072310,-1036.288319
1207.670739,-13175.665768,-74617.701505,18061.024985
1207.673289,-24130.713709,-73851.606007,-2516.700203
1207.675840,6365.771101,-75383.797003,11103.089130
1207.678390,-12583.501014,-76456.330700,18357.107362
1207.680941,-6661.853478,-73545.167808,10510.924376
1207.683491,-6069.688724,-75383.797003,20429.683999
1207.686042,-2072.576638,-72625.853210,3997.112087
1207.688592,-11251.130318,-74770.920605,1332.370696
1207.691142,11547.212695,-73851.606007,-0.000000
1207.693693,-16136.489536,-72779.072310,4737.318029
1207.696243,-15100.201217,-72779.072310,10066.800811
1207.698794,26647.413912,-74617.701505,-5181.441594
1207.701344,-148.041188,-75996.673402,-7254.018232
1207.703895,8290.306550,-73085.510509,-1184.329507
1207.706445,1184.329507,-73085.510509,-8734.430116
1207.708995,-8438.347739,-71859.757712,-6069.688724
1207.711546,7994.224174,-74770.920605,-2220.617826
1207.714096,10362.883188,-74770.920605,-4589.276840
1207.716647,1776.494261,-74464.482406,-2664.741391
1207.719197,10214.842000,-74924.139704,-444.123565
1207.721752,-6069.688724,-76149.892501,7254.018232
1207.724307,9326.594869,-74311.263306,888.247130
1207.726862,13915.871710,-74311.263306,1924.535449
1207.729417,-2664.741391,-73698.386908,148.041188
1207.731972,11695.253884,-74004.825107,3997.112087
1207.734527,12287.418637,-75077.358804,-1628.453072
1207.737082,-4145.153275,-77222.426198,-5033.400406
1207.739637,11991.336260,-75690.235202,-9178.553681
1207.742191,2220.617826,-73545.167808,-4441.235652
1207.744746,5477.523971,-73238.729609,-7846.182985
1207.747301,15988.448347,-74617.701505,888.247130
1207.749856,6809.894666,-75843.454302,-6217.729913
1207.752411,444.123565,-75690.235202,-888.247130
1207.754966,4293.194464,-75383.797003,2516.700203
1207.757521,5181.441594,-74311.263306,-1332.370696
1207.760076,-4293.194464,-73085.510509,6069.688724
1207.762631,-7550.100608,-74004.825107,9030.512492
1207.765186,-9770.718434,-73851.606007,16876.695478
1207.767741,-7698.141797,-75383.797003,5773.606348
1207.770296,5477.523971,-74924.139704,2220.617826
1207.772851,-9622.677246,-77222.426198,5921.647536
1207.775405,-5033.400406,-73851.606007,4737.318029
1207.777960,-10658.965565,-72932.291410,13619.789333
1207.780515,-11547.212695,-71859.757712,3849.070898
1207.783070,1924.535449,-75230.577904,3701.029710
1207.785625,14656.077652,-75230.577904,-2960.823768
1207.788180,3997.112087,-75383.797003,9770.718434
1207.790735,-12879.583391,-72779.072310,9474.636058
1207.793290,-11843.295072,-74770.920605,5773.606348
1207.795845,-1628.453072,-71859.757712,592.164754
1207.798400,-17616.901420,-75537.016103,9918.759623
1207.800955,9326.594869,-74617.701505,13323.706956
1207.803510,-8734.430116,-76149.892501,22502.260637
1207.806064,3404.947333,-74770.920605,10807.006753
1207.808619,-888.247130,-74464.482406,10658.965565
1207.811174,-8586.388927,-75077.358804,-2368.659014
1207.813729,-6069.688724,-72625.853210,-888.247130
1207.816284,10362.883188,-72625.853210,10510.924376
1207.818839,-14359.995275,-73545.167808,1036.288319
1207.821394,21910.095883,-75843.454302,-8290.306550
1207.823953,740.205942,-75843.454302,-6217.729913
1207.826512,9622.677246,-73545.167808,-5477.523971
1207.829070,-3849.070898,-73085.510509,-6661.853478
1207.831629,-2368.659014,-72166.195912,-11399.171507
1207.834188,2516.700203,-74004.825107,-5329.482782
1207.836747,15692.365970,-75077.358804,-5329.482782
1207.839306,6217.729913,-74311.263306,-4293.194464
1207.841864,8438.347739,-74464.482406,1332.370696
1207.844423,-18357.107362,-72319.415011,-2960.823768
1207.846982,2072.576638,-74311.263306,-10955.047942
1207.849541,16284.530724,-72625.853210,444.123565
1207.852100,9770.718434,-74617.701505,6069.688724
1207.854658,592.164754,-73545.167808,3552.988522
1207.857217,18357.107362,-75843.454302,-12583.501014
1207.859776,5921.647536,-74158.044206,-10362.883188
1207.862335,2368.659014,-74004.825107,-7994.224174
1207.864893,9918.759623,-71093.662214,-12287.418637
1207.867452,-6513.812290,-73698.386908,-6513.812290
1207.870011,13471.748144,-73545.167808,-11399.171507
1207.872570,2072.576638,-75996.673402,-740.205942
1207.875129,-7254.018232,-74617.701505,-1924.535449
1207.877687,13915.871710,-73238.729609,-3108.864956
1207.880246,-6513.812290,-73698.386908,592.164754
1207.882805,-4885.359217,-72166.195912,-1332.370696
1207.885364,-16136.489536,-74770.920605,18801.230927
1207.887923,3108.864956,-73545.167808,8438.347739
1207.890481,-4145.153275,-75383.797003,12583.501014
1207.893040,2960.823768,-75843.454302,1332.370696
1207.895599,1480.411884,-74004.825107,1184.329507
1207.898158,-19689.478057,-74158.044206,10955.047942
1207.900717,3404.947333,-72166.195912,13323.706956
1207.903275,-1628.453072,-74158.044206,8734.430116
1207.905834,5329.482782,-75383.797003,4589.276840
1207.908393,14656.077652,-75537.016103,3108.864956
1207.910952,-16136.489536,-75230.577904,1480.411884
1207.913511,-888.247130,-69714.690318,-5329.482782
1207.916069,-13323.706956,-74311.263306,18061.024985
1207.918628,-16728.654289,-75077.358804,4293.194464
1207.921187,9030.512492,-74004.825107,12731.542202
1207.923746,-9030.512492,-75230.577904,10658.965565
1207.926279,-4589.276840,-74004.825107,5921.647536
1207.928811,-4441.235652,-74004.825107,14211.954086
1207.931344,-0.000000,-73851.606007,-4293.194464
1207.933877,-22502.260637,-74004.825107,-0.000000
1207.936410,10362.883188,-71246.881314,9918.759623
1207.938942,-11103.089130,-73698.386908,-1776.494261
1207.941475,11695.253884,-74770.920605,-5181.441594
1207.944008,17912.983796,-76609.549800,-9178.553681
1207.946541,888.247130,-73085.510509,-6513.812290
1207.949074,-5181.441594,-73238.729609,-2368.659014
1207.951606,5033.400406,-74158.044206,-7254.018232
1207.954139,-6513.812290,-73698.386908,-9918.759623
1207.956672,28423.908173,-75230.577904,-3849.070898
1207.959205,1776.494261,-74464.482406,-11695.253884
1207.961738,-2516.700203,-74617.701505,-2812.782580
1207.964270,16876.695478,-73545.167808,1924.535449
1207.966803,-17172.777854,-72779.072310,14211.954086
1207.969336,16728.654289,-74004.825107,-12583.501014
1207.971869,8734.430116,-73238.729609,7550.100608
1207.974401,-6365.771101,-75077.358804,-8586.388927
1207.976934,18949.272115,-74311.263306,3997.112087
1207.979467,-9030.512492,-76303.111601,-8734.430116
1207.982000,1184.329507,-73238.729609,-7254.018232
1207.984533,17616.901420,-74770.920605,-1036.288319
1207.987065,12287.418637,-73545.167808,-10066.800811
1207.989598,1036.288319,-74617.701505,-3108.864956
1207.992131,10066.800811,-75230.577904,-2368.659014
1207.994664,-17468.860231,-75230.577904,3404.947333
1207.997197,11843.295072,-74464.482406,-444.123565
1207.999729,888.247130,-74311.263306,6809.894666
1208.002262,-3849.070898,-75077.358804,7846.182985
1208.004795,-12583.501014,-73238.729609,17320.819043
1208.007328,-1924.535449,-73851.606007,8290.306550
1208.009860,-8586.388927,-75537.016103,9178.553681
1208.012393,1628.453072,-76915.987999,6365.771101
1208.014926,6661.853478,-74158.044206,6217.729913
1208.017459,-18357.107362,-72625.853210,7550.100608
1208.019992,-17616.901420,-73238.729609,9326.594869
1208.022524,-3997.112087,-75077.358804,7846.182985
1208.025057,-9178.553681,-78754.617194,14211.954086
1208.027569,7550.100608,-74924.139704,-14656.077652
1208.030082,296.082377,-74311.263306,4145.153275
1208.032594,-13323.706956,-70480.785816,592.164754
1208.035106,148.041188,-72319.415011,13619.789333
1208.037618,-2960.823768,-74004.825107,14063.912898
1208.040131,-6513.812290,-76149.892501,17172.777854
1208.042643,-5329.482782,-76303.111601,13175.665768
1208.045155,9770.718434,-73698.386908,8882.471304
1208.047667,-11103.089130,-73698.386908,2664.741391
1208.050180,-4589.276840,-72932.291410,1480.411884
1208.052692,-1332.370696,-73545.167808,7254.018232
1208.055204,-18653.189738,-72625.853210,4737.318029
1208.057716,1628.453072,-75996.673402,1332.370696
1208.060229,29904.320057,-76609.549800,-11695.253884
1208.062741,-13471.748144,-73851.606007,-2368.659014
1208.065253,11991.336260,-73085.510509,-3997.112087
1208.067765,-5625.565159,-73851.606007,-3997.112087
1208.070277,-2368.659014,-74770.920605,-7254.018232
1208.072790,21614.013506,-74617.701505,-5921.647536
1208.075302,17320.819043,-74311.263306,-7402.059420
1208.077814,-9918.759623,-74924.139704,-888.247130
1208.080326,5033.400406,-74464.482406,2812.782580
1208.082839,-20577.725188,-75383.797003,11547.212695
1208.085351,-296.082377,-75996.673402,-3849.070898
1208.087863,25611.125593,-74464.482406,-6957.935855
1208.090375,-11695.253884,-72932.291410,1480.411884
1208.092888,9326.594869,-75537.016103,-888.247130
1208.095400,11251.130318,-75230.577904,-4885.359217
1208.097912,-11399.171507,-75230.577904,-3256.906145
1208.100424,6217.729913,-73238.729609,-17912.983796
1208.102937,4293.194464,-73391.948708,-7994.224174
1208.105449,9770.718434,-73698.386908,-10214.842000
1208.107961,1628.453072,-74924.139704,3997.112087
1208.110473,-2960.823768,-74617.701505,3256.906145
1208.112986,11991.336260,-74158.044206,-4145.153275
1208.115498,-5181.441594,-74464.482406,1776.494261
1208.118010,-5921.647536,-73391.948708,-592.164754
1208.120522,-15100.201217,-73238.729609,18061.024985
1208.123034,-740.205942,-72472.634111,12731.542202
1208.125547,-2072.576638,-74158.044206,10510.924376
1208.128071,4441.235652,-76915.987999,-3997.112087
1208.130596,-740.205942,-73851.606007,3256.906145
1208.133120,-20133.601622,-72779.072310,11843.295072
1208.135645,-11547.212695,-72625.853210,11399.171507
1208.138169,2368.659014,-76915.987999,14952.160028
1208.140694,8142.265362,-77069.207099,8882.471304
1208.143218,-14063.912898,-77222.426198,1184.329507
1208.145743,22502.260637,-72012.976812,-20873.807564
1208.148268,-21169.889941,-73238.729609,29312.155303
1208.150792,-34789.679274,-73545.167808,20281.642811
1208.153317,12731.542202,-72319.415011,5921.647536
1208.155841,-16580.613101,-77528.864398,18505.148550
1208.158366,2220.617826,-74770.920605,-1628.453072
1208.160890,-13471.748144,-77222.426198,17320.819043
1208.163415,3256.906145,-72625.853210,592.164754
1208.165939,-7994.224174,-74158.044206,3849.070898
1208.168464,-34345.555709,-72625.853210,12435.459826
1208.170988,11103.089130,-73545.167808,3701.029710
1208.173513,14063.912898,-77528.864398,1184.329507
1208.176037,7550.100608,-76762.768900,-9770.718434
1208.178562,15100.201217,-74311.263306,592.164754
1208.181087,-11843.295072,-72625.853210,-4885.359217
1208.183611,5773.606348,-73238.729609,444.123565
1208.186136,1332.370696,-74617.701505,-6217.729913
1208.188660,4441.235652,-75690.235202,-5625.565159
1208.191185,14063.912898,-74770.920605,-6217.729913
1208.193709,8142.265362,-74311.263306,-2220.617826
1208.196234,-19245.354492,-72166.195912,-2960.823768
1208.198758,10807.006753,-73545.167808,-11103.089130
1208.201283,296.082377,-74617.701505,1924.535449
1208.203807,-0.000000,-76303.111601,-740.205942
1208.206332,18505.148550,-71246.881314,2664.741391
1208.208856,-8142.265362,-77835.302597,3404.947333
1208.211381,7105.977043,-74617.701505,-15100.201217
1208.213905,-592.164754,-73238.729609,-10658.965565
1208.216430,4293.194464,-72625.853210,-14063.912898
1208.218955,12139.377449,-73851.606007,148.041188
1208.221479,7105.977043,-74004.825107,-5181.441594
1208.224004,-2664.741391,-74004.825107,-3404.947333
1208.226528,6809.894666,-75230.577904,2812.782580
1208.229063,-2960.823768,-74617.701505,-740.205942
1208.231598,-6809.894666,-75537.016103,11547.212695
1208.234133,-5921.647536,-75230.577904,9770.718434
1208.236669,-13323.706956,-72319.415011,11695.253884
1208.239204,-6661.853478,-73698.386908,6217.729913
1208.241739,5181.441594,-75996.673402,4885.359217
1208.244274,-5477.523971,-76456.330700,7402.059420
1208.246809,-7105.977043,-73238.729609,6661.853478
1208.249344,296.082377,-71706.538613,8142.265362
1208.251879,-15396.283594,-72166.195912,7994.224174
1208.254414,11843.295072,-76303.111601,9474.636058
1208.256949,-13027.624579,-77375.645298,10955.047942
1208.259484,-12435.459826,-76456.330700,-10214.842000
1208.262020,5773.606348,-70940.443115,-5625.565159
1208.264555,-10658.965565,-70021.128517,12435.459826
1208.267090,-22798.343014,-72319.415011,148.041188
1208.269625,8438.347739,-75996.673402,22502.260637
1208.272160,-17764.942608,-77069.207099,13767.830521
1208.274695,11843.295072,-74617.701505,6809.894666
1208.277230,-10955.047942,-75996.673402,9178.553681
1208.279765,-9030.512492,-73851.606007,-3997.112087
1208.282300,-6513.812290,-71553.319513,11547.212695
1208.284835,3404.947333,-73085.510509,8438.347739
1208.287371,2368.659014,-75230.577904,-148.041188
1208.289906,31384.731941,-76762.768900,-14952.160028
1208.292441,-12139.377449,-74770.920605,-4441.235652
1208.294976,8142.265362,-72932.291410,-6513.812290
1208.297511,-3701.029710,-71553.319513,-2960.823768
1208.300046,-6069.688724,-74770.920605,-6217.729913
1208.302581,5033.400406,-74617.701505,-9918.759623
1208.305116,22206.178260,-76303.111601,-5625.565159
1208.307651,-6809.894666,-74770.920605,-1184.329507
1208.310186,-4737.318029,-73851.606007,2072.576638
1208.312722,-18061.024985,-73545.167808,-3108.864956
1208.315257,27683.702231,-74770.920605,-16432.571912
1208.317792,-8586.388927,-76915.987999,31828.855506
1208.320327,-9918.759623,-75537.016103,3108.864956
1208.322862,30940.608376,-73238.729609,-10510.924376
1208.325397,-20873.807564,-75537.016103,-444.123565
1208.327932,6365.771101,-72319.415011,-26647.413912
1208.330476,3849.070898,-75383.797003,4589.276840
1208.333020,10807.006753,-72166.195912,-16580.613101
1208.335565,2220.617826,-75230.577904,1924.535449
1208.338109,-444.123565,-75690.235202,3256.906145
1208.340653,2516.700203,-73085.510509,-3256.906145
1208.343197,-5921.647536,-76456.330700,7402.059420
1208.345741,-1332.370696,-74158.044206,7994.224174
1208.348285,-15248.242405,-75843.454302,9622.677246
1208.350829,-6661.853478,-72166.195912,11399.171507
1208.353374,-6513.812290,-74770.920605,9918.759623
1208.355918,3404.947333,-75230.577904,2812.782580
1208.358462,-5773.606348,-75843.454302,8142.265362
1208.361006,-7994.224174,-73545.167808,6069.688724
1208.363550,-5033.400406,-71706.538613,8290.306550
1208.366094,-16876.695478,-71400.100414,8290.306550
1208.368638,1480.411884,-74311.263306,1036.288319
1208.371182,13175.665768,-77988.521696,-0.000000
1208.373727,-15100.201217,-76762.768900,1628.453072
1208.376271,-5921.647536,-72012.976812,5329.482782
1208.378815,-9474.636058,-70480.785816,17172.777854
1208.381359,-33605.349767,-74158.044206,11103.089130
1208.383903,9178.553681,-76609.549800,12287.418637
1208.386447,-11103.089130,-77528.864398,17172.777854
1208.388991,11695.253884,-74158.044206,3997.112087
1208.391536,-5329.482782,-75383.797003,5625.565159
1208.394080,-23094.425390,-72319.415011,-1924.535449
1208.396624,-1776.494261,-71246.881314,13027.624579
1208.399168,2368.659014,-73545.167808,4441.235652
1208.401712,22502.260637,-75537.016103,-11547.212695
1208.404256,16284.530724,-77222.426198,-10362.883188
1208.406800,-740.205942,-73698.386908,-4441.235652
1208.409345,-1776.494261,-72625.853210,-2220.617826
1208.411889,-3256.906145,-70940.443115,-6513.812290
1208.414433,-2960.823768,-76149.892501,-6957.935855
1208.416977,18061.024985,-75690.235202,-9918.759623
1208.419521,5181.441594,-75690.235202,-5477.523971
1208.422065,2664.741391,-72932.291410,-2368.659014
1208.424609,5181.441594,-70787.224015,296.082377
1208.427154,7402.059420,-72625.853210,-10807.006753
1208.429698,13619.789333,-74311.263306,1924.535449
1208.432249,11695.253884,-73851.606007,6365.771101
1208.434800,19985.560434,-74158.044206,-5181.441594
1208.437351,13175.665768,-74464.482406,-4737.318029
1208.439902,-3256.906145,-73391.948708,-14804.118840
1208.442453,6661.853478,-71859.757712,-14063.912898
1208.445004,11547.212695,-74004.825107,-2072.576638
1208.447555,8586.388927,-73391.948708,-8438.347739
1208.450106,-1332.370696,-74617.701505,-2812.782580
1208.452657,5477.523971,-74770.920605,2516.700203
1208.455208,3701.029710,-73545.167808,-2812.782580
1208.457759,-6957.935855,-74924.139704,10510.924376
1208.460311,-6513.812290,-75230.577904,4737.318029
1208.462862,-7994.224174,-73545.167808,17616.901420
1208.465413,-8586.388927,-73851.606007,4441.235652
1208.467964,4885.359217,-72779.072310,5773.606348
1208.470515,-11251.130318,-76762.768900,5921.647536
1208.473066,888.247130,-74158.044206,2516.700203
1208.475617,-7550.100608,-72472.634111,15840.407159
1208.478168,-7402.059420,-70327.566716,4145.153275
1208.480719,-1332.370696,-73545.167808,11547.212695
1208.483270,-2664.741391,-78294.959896,-4589.276840
1208.485821,21614.013506,-76149.892501,1480.411884
1208.488372,-33457.308578,-77222.426198,24426.796086
1208.490923,-7698.141797,-70327.566716,5921.647536
1208.493474,-2812.782580,-74770.920605,25611.125593
1208.496025,-17024.736666,-72932.291410,1332.370696
1208.498577,12435.459826,-76609.549800,13027.624579
1208.501128,-8734.430116,-75996.673402,13471.748144
1208.503679,13323.706956,-73851.606007,1480.411884
1208.506230,-20429.683999,-74617.701505,8882.471304
1208.508781,-26055.249158,-70480.785816,8438.347739
1208.511332,16580.613101,-72472.634111,1332.370696
1208.513883,13767.830521,-74770.920605,-11103.089130
1208.516434,17468.860231,-76915.987999,-14359.995275
1208.518985,5773.606348,-73851.606007,-2072.576638
1208.521536,-13175.665768,-72779.072310,-3552.988522
1208.524087,9918.759623,-71706.538613,-1924.535449
1208.526638,-5921.647536,-74004.825107,-5625.565159
1208.529189,9622.677246,-75690.235202,-12435.459826
1208.531740,11991.336260,-75383.797003,-7105.977043
1208.534297,1480.411884,-75537.016103,-592.164754
1208.536855,-4441.235652,-73851.606007,7994.224174
1208.539412,-3997.112087,-72166.195912,1776.494261
1208.541969,444.123565,-72932.291410,-6365.771101
1208.544526,8438.347739,-77375.645298,9178.553681
1208.547083,15100.201217,-75077.358804,-14211.954086
1208.549640,10066.800811,-75077.358804,-4145.153275
1208.552197,3849.070898,-74464.482406,-10362.883188
1208.554754,4737.318029,-72166.195912,-11103.089130
1208.557311,7550.100608,-74617.701505,-2220.617826
1208.559868,13471.748144,-72779.072310,-4589.276840
1208.562425,-148.041188,-75383.797003,740.205942
1208.564983,10214.842000,-75383.797003,3256.906145
1208.567540,1480.411884,-75537.016103,592.164754
1208.570097,-8290.306550,-73545.167808,9622.677246
1208.572654,-19689.478057,-75077.358804,9918.759623
1208.575211,-2220.617826,-72779.072310,21021.848753
1208.577768,-10807.006753,-75537.016103,9030.512492
1208.580325,15100.201217,-74158.044206,-148.041188
1208.582882,-11251.130318,-76303.111601,4885.359217
1208.585439,-13471.748144,-73851.606007,2664.741391
1208.587996,296.082377,-70327.566716,15840.407159
1208.590553,-15248.242405,-71859.757712,4737.318029
1208.593110,-8882.471304,-74004.825107,-3404.947333
1208.595668,15840.407159,-77375.645298,-740.205942
1208.598225,-15100.201217,-76303.111601,8734.430116
1208.600782,-17024.736666,-73545.167808,7550.100608
1208.603339,3404.947333,-70327.566716,14804.118840
1208.605896,-20133.601622,-73851.606007,15396.283594
1208.608453,-6661.853478,-74770.920605,6365.771101
1208.611010,4441.235652,-75690.235202,9770.718434
1208.613567,-7698.141797,-75230.577904,6365.771101
1208.616129,-1480.411884,-74004.825107,5921.647536
1208.618692,-16580.613101,-72472.634111,2812.782580
1208.621254,-24870.919651,-72625.853210,8142.265362
1208.623816,22650.301825,-75230.577904,2516.700203
1208.626379,24278.754898,-76915.987999,-14211.954086
1208.628941,-1036.288319,-76303.111601,-2812.782580
1208.631503,14804.118840,-73391.948708,-5181.441594
1208.634065,-13471.748144,-71706.538613,148.041188
1208.636628,8882.471304,-72472.634111,-3256.906145
1208.639190,3997.112087,-74924.139704,-7254.018232
1208.641752,12139.377449,-76609.549800,-6661.853478
1208.644315,22502.260637,-75077.358804,-6069.688724
1208.646877,5921.647536,-73698.386908,2072.576638
1208.649439,-5477.523971,-70480.785816,12287.418637
1208.652001,4293.194464,-75690.235202,-4441.235652
1208.654564,10214.842000,-75690.235202,296.082377
1208.657126,-10510.924376,-77222.426198,-1628.453072
1208.659688,21910.095883,-72625.853210,-18653.189738
1208.662250,3849.070898,-72932.291410,-5625.565159
1208.664813,2664.741391,-73085.510509,-13027.624579
1208.667375,3108.864956,-73391.948708,-9178.553681
1208.669937,1924.535449,-73391.948708,-5033.400406
1208.672500,3404.947333,-74311.263306,-3701.029710
1208.675062,2812.782580,-75077.358804,5033.400406
1208.677624,9030.512492,-74924.139704,-2516.700203
1208.680186,-444.123565,-74924.139704,8586.388927
1208.682749,-20133.601622,-74617.701505,3404.947333
1208.685311,-7105.977043,-72472.634111,14804.118840
1208.687873,-4885.359217,-74617.701505,10658.965565
1208.690436,1628.453072,-73851.606007,8438.347739
1208.692998,-1036.288319,-76149.892501,2516.700203
1208.695560,-1924.535449,-73851.606007,888.247130
1208.698122,-31088.649564,-72779.072310,13619.789333
1208.700685,-3701.029710,-74464.482406,16580.613101
1208.703247,-8142.265362,-76303.111601,21465.972318
1208.705809,-888.247130,-77375.645298,-6513.812290
1208.708372,5625.565159,-76762.768900,-7254.018232
1208.710934,-11695.253884,-73545.167808,6365.771101
1208.713496,-16728.654289,-71859.757712,20429.683999
1208.716058,-9622.677246,-72166.195912,21465.972318
1208.718624,-6217.729913,-75077.358804,18653.189738
1208.721190,8882.471304,-77528.864398,4737.318029
1208.723756,3701.029710,-75230.577904,5477.523971
1208.726322,-14211.954086,-74770.920605,1480.411884
1208.728888,-4293.194464,-72166.195912,13027.624579
1208.731453,-23390.507767,-72319.415011,10658.965565
1208.734019,3552.988522,-73698.386908,4589.276840
1208.736585,36418.132346,-77835.302597,-12879.583391
1208.739151,-10362.883188,-75690.235202,-6217.729913
1208.741717,8438.347739,-73545.167808,-6217.729913
1208.744283,-3108.864956,-71553.319513,592.164754
1208.746848,-6069.688724,-72319.415011,-4145.153275
1208.749414,16432.571912,-75843.454302,-740.205942
1208.751980,11991.336260,-76303.111601,-8438.347739
1208.754546,13471.748144,-74004.825107,-8438.347739
1208.757112,6365.771101,-73238.729609,6809.894666
1208.759678,-10807.006753,-72319.415011,-1332.370696
1208.762244,10807.006753,-72166.195912,1924.535449
1208.764809,3849.070898,-77682.083497,14656.077652
1208.767375,9918.759623,-75077.358804,-15988.448347
1208.769941,-3256.906145,-77069.207099,-4145.153275
1208.772507,-4589.276840,-75537.016103,-14359.995275
1208.775073,18505.148550,-71246.881314,-14804.118840
1208.777639,296.082377,-73085.510509,-6513.812290
1208.780204,5181.441594,-72779.072310,-11251.130318
1208.782770,2072.576638,-74617.701505,4145.153275
1208.785336,2072.576638,-75843.454302,-148.041188
1208.787902,4293.194464,-75996.673402,4737.318029
1208.790468,-5329.482782,-75230.577904,12435.459826
1208.793034,-18949.272115,-73698.386908,11399.171507
1208.795600,-3849.070898,-72932.291410,11695.253884
1208.798165,-1924.535449,-74311.263306,8882.471304
1208.800731,5477.523971,-76149.892501,1628.453072
1208.803297,296.082377,-74311.263306,6957.935855
1208.805863,-1332.370696,-73545.167808,4293.194464
1208.808429,-30200.402434,-72932.291410,13175.665768
1208.810995,-12879.583391,-72319.415011,13767.830521
1208.813560,7698.141797,-75996.673402,7698.141797
1208.816126,-3256.906145,-74924.139704,-8586.388927
1208.818692,6365.771101,-74464.482406,-3256.906145
1208.821261,-3552.988522,-72012.976812,14359.995275
1208.823830,-14508.036463,-69867.909418,21465.972318
1208.826399,6809.894666,-71859.757712,18801.230927
1208.828968,-4885.359217,-74158.044206,10362.883188
1208.831537,-2516.700203,-76762.768900,8142.265362
1208.834106,592.164754,-75230.577904,-0.000000
1208.836675,-20133.601622,-74004.825107,1480.411884
1208.839244,-2664.741391,-71246.881314,18949.272115
1208.841813,-11991.336260,-72932.291410,1628.453072
1208.844382,18061.024985,-73698.386908,-12287.418637
1208.846951,22354.219448,-77222.426198,-15396.283594
1208.849520,9030.512492,-73698.386908,-14508.036463
1208.852089,-9178.553681,-72166.195912,1628.453072
1208.854658,1924.535449,-71400.100414,-7698.141797
1208.857227,-10362.883188,-73698.386908,740.205942
1208.859796,24278.754898,-76149.892501,-8142.265362
1208.862365,5329.482782,-75843.454302,-8290.306550
1208.864934,-1332.370696,-75690.235202,-296.082377
1208.867503,-16284.530724,-73851.606007,-2812.782580
1208.870072,3404.947333,-71093.662214,-19393.395680
1208.872641,20133.601622,-72625.853210,1036.288319
1208.875210,-10955.047942,-77682.083497,10214.842000
1208.877779,24574.837274,-75996.673402,-17616.901420
1208.880348,-7550.100608,-76609.549800,-6069.688724
1208.882917,3552.988522,-73698.386908,-20281.642811
1208.885486,4293.194464,-74464.482406,1332.370696
1208.888055,1628.453072,-74617.701505,-2368.659014
1208.890624,3701.029710,-72779.072310,-6809.894666
1208.893193,4293.194464,-76303.111601,6513.812290
1208.895762,8438.347739,-74770.920605,-3997.112087
1208.898331,-15248.242405,-76303.111601,15692.365970
1208.900900,-3552.988522,-73238.729609,8734.430116
1208.903469,-15100.201217,-73391.948708,15988.448347
1208.906038,-7698.141797,-75230.577904,7402.059420
1208.908607,10955.047942,-75077.358804,-3404.947333
1208.911176,-2516.700203,-76915.987999,6809.894666
1208.913745,-8586.388927,-72472.634111,3997.112087
1208.916314,-17616.901420,-72625.853210,16136.489536
1208.918883,-4145.153275,-73085.510509,5921.647536
1208.921452,-7550.100608,-74464.482406,17468.860231
1208.924024,5921.647536,-78448.178995,-7402.059420
1208.926596,12435.459826,-75383.797003,-1480.411884
1208.929167,-26055.249158,-73545.167808,15544.324782
1208.931739,-2220.617826,-71400.100414,15100.201217
1208.934310,-24130.713709,-75077.358804,22502.260637
1208.936882,3108.864956,-75230.577904,5329.482782
1208.939453,1332.370696,-77528.864398,17024.736666
1208.942025,3108.864956,-75690.235202,-4145.153275
1208.944596,-444.123565,-72319.415011,2220.617826
1208.947168,-26203.290347,-73391.948708,15248.242405
1208.949740,-7698.141797,-70787.224015,1036.288319
1208.952311,34049.473332,-76915.987999,-11547.212695
1208.954883,8882.471304,-76609.549800,-14952.160028
1208.957454,16136.489536,-75230.577904,-9178.553681
1208.960026,-10066.800811,-72779.072310,-1924.535449
1208.962597,4145.153275,-70634.004916,148.041188
1208.965169,8882.471304,-74004.825107,1184.329507
1208.967740,13619.789333,-75843.454302,-8882.471304
1208.970312,12731.542202,-76609.549800,-8438.347739
1208.972884,-12583.501014,-74770.920605,-7994.224174
1208.975455,3404.947333,-72625.853210,-7254.018232
1208.978027,1036.288319,-72932.291410,15988.448347
1208.980598,-2220.617826,-75077.358804,2368.659014
1208.983170,7994.224174,-75996.673402,-15248.242405
1208.985741,8290.306550,-76456.330700,-5773.606348
1208.988313,3108.864956,-75383.797003,-16136.489536
1208.990884,7994.224174,-73698.386908,-7105.977043
1208.993456,-2220.617826,-73238.729609,-11103.089130
1208.996028,6809.894666,-72166.195912,-6661.853478
1208.998599,-5773.606348,-75383.797003,5033.400406
1209.001171,14359.995275,-74158.044206,-740.205942
1209.003742,-6513.812290,-75383.797003,7402.059420
1209.006314,2812.782580,-73851.606007,6513.812290
1209.008885,-24278.754898,-74158.044206,14952.160028
1209.011457,-3256.906145,-72012.976812,14211.954086
1209.014028,-6957.935855,-75230.577904,13027.624579
1209.016600,12583.501014,-76149.892501,3256.906145
1209.019172,-2664.741391,-75690.235202,3849.070898
1209.021743,-2960.823768,-73391.948708,5921.647536
1209.024315,-19541.436869,-70327.566716,12287.418637
1209.026859,-4293.194464,-74004.825107,18653.189738
1209.029404,-8142.265362,-76149.892501,10807.006753
1209.031948,-888.247130,-79367.493593,1628.453072
1209.034493,-13175.665768,-78141.740796,8290.306550
1209.037037,-17024.736666,-72472.634111,11399.171507
1209.039582,-22058.137072,-70634.004916,23982.672521
1209.042126,-8438.347739,-74924.139704,14656.077652
1209.044671,-5477.523971,-76303.111601,14063.912898
1209.047215,2220.617826,-76762.768900,2664.741391
1209.049760,-740.205942,-74158.044206,3256.906145
1209.052304,-19985.560434,-74004.825107,7550.100608
1209.054849,-2516.700203,-70480.785816,15544.324782
1209.057393,3404.947333,-74004.825107,-296.082377
1209.059938,20873.807564,-76456.330700,-15544.324782
1209.062482,-1776.494261,-76303.111601,-6809.894666
1209.065027,7550.100608,-74158.044206,-10214.842000
1209.067571,-4737.318029,-71246.881314,3108.864956
1209.070116,-1628.453072,-72779.072310,-5477.523971
1209.072660,296.082377,-74311.263306,-5625.565159
1209.075205,13027.624579,-76456.330700,-7254.018232
1209.077749,4885.359217,-74770.920605,-10807.006753
1209.080294,-2368.659014,-74004.825107,-4885.359217
1209.082838,-444.123565,-71553.319513,9622.677246
1209.085383,-5477.523971,-74770.920605,-148.041188
1209.087927,8438.347739,-74311.263306,-2368.659014
1209.090472,12583.501014,-76456.330700,-7402.059420
1209.093016,4441.235652,-75383.797003,-9326.594869
1209.095561,8586.388927,-74158.044206,-15396.283594
1209.098105,4737.318029,-72319.415011,-11695.253884
1209.100650,-8438.347739,-73851.606007,-3108.864956
1209.103194,8882.471304,-73698.386908,740.205942
1209.105739,8438.347739,-75537.016103,6809.894666
1209.108283,11991.336260,-75537.016103,1628.453072
1209.110828,-7698.141797,-75230.577904,9918.759623
1209.113372,-13323.706956,-74464.482406,7698.141797
1209.115917,-17764.942608,-71553.319513,13767.830521
1209.118461,-2516.700203,-75077.358804,11695.253884
1209.121006,6661.853478,-75996.673402,6513.812290
1209.123550,3552.988522,-76609.549800,3997.112087
1209.126095,1036.288319,-73085.510509,2368.659014
1209.128646,-15396.283594,-72166.195912,11843.295072
1209.131198,-3108.864956,-72012.976812,12583.501014
1209.133750,15100.201217,-75996.673402,14952.160028
1209.136301,-15692.365970,-78754.617194,-592.164754
1209.138853,26499.372724,-72012.976812,-9918.759623
1209.141404,-14656.077652,-72472.634111,21465.972318
1209.143956,-17172.777854,-70787.224015,10807.006753
1209.146508,-592.164754,-73085.510509,24130.713709
1209.149059,-13915.871710,-76303.111601,5625.565159
1209.151611,11251.130318,-75690.235202,2960.823768
1209.154162,296.082377,-75230.577904,3701.029710
1209.156714,-12731.542202,-70940.443115,5921.647536
1209.159265,-11399.171507,-72166.195912,15396.283594
1209.161817,9918.759623,-74158.044206,1184.329507
1209.164369,19541.436869,-77375.645298,-16728.654289
1209.166920,4589.276840,-75843.454302,-12139.377449
1209.169472,12435.459826,-74158.044206,-11399.171507
1209.172023,-7105.977043,-72319.415011,-148.041188
1209.174575,-444.123565,-72779.072310,-592.164754
1209.177127,8734.430116,-75690.235202,-5625.565159
1209.179678,3701.029710,-76149.892501,-9770.718434
1209.182230,27535.661042,-77682.083497,-7105.977043
1209.184781,8438.347739,-72779.072310,5625.565159
1209.187333,-8142.265362,-72472.634111,9622.677246
1209.189885,3997.112087,-69101.813920,-16580.613101
1209.192436,15100.201217,-73391.948708,-15396.283594
1209.194988,4737.318029,-75537.016103,-8290.306550
1209.197539,17764.942608,-75383.797003,-10955.047942
1209.200091,-4885.359217,-74770.920605,-3404.947333
1209.202642,4145.153275,-73238.729609,-13915.871710
1209.205194,-3849.070898,-74158.044206,-592.164754
1209.207746,-2072.576638,-74924.139704,-1480.411884
1209.210297,17172.777854,-74464.482406,-3108.864956
1209.212849,-5625.565159,-76456.330700,9474.636058
1209.215400,2072.576638,-74158.044206,7994.224174
1209.217952,-22798.343014,-74617.701505,17320.819043
1209.220504,-8882.471304,-71553.319513,17172.777854
1209.223055,-6513.812290,-75383.797003,13915.871710
1209.225607,14656.077652,-75537.016103,3108.864956
1209.228158,-3997.112087,-76456.330700,2220.617826
1209.230715,-14359.995275,-72779.072310,5329.482782
1209.233272,-19837.519246,-72932.291410,11843.295072
1209.235829,-5625.565159,-74924.139704,14063.912898
1209.238386,-7402.059420,-77375.645298,16876.695478
1209.240943,19689.478057,-77069.207099,-9030.512492
1209.243500,-10066.800811,-73238.729609,10658.965565
1209.246057,7254.018232,-70021.128517,2960.823768
1209.248614,-3552.988522,-70480.785816,16284.530724
1209.251171,-19837.519246,-77069.207099,16876.695478
1209.253728,6957.935855,-75383.797003,12139.377449
1209.256284,-2960.823768,-78448.178995,8586.388927
1209.258841,888.247130,-73238.729609,-4145.153275
1209.261398,-13027.624579,-72472.634111,15100.201217
1209.263955,3701.029710,-71706.538613,6217.729913
1209.266512,5329.482782,-75077.358804,-10807.006753
1209.269069,5033.400406,-75690.235202,-13767.830521
1209.271626,15692.365970,-75383.797003,-10362.883188
1209.274183,-7550.100608,-73391.948708,-3404.947333
1209.276740,4441.235652,-71246.881314,-2368.659014
1209.279297,1036.288319,-73391.948708,-1628.453072
1209.281854,3404.947333,-74770.920605,-9622.677246
1209.284410,27535.661042,-75690.235202,-888.247130
1209.286967,9770.718434,-75843.454302,-6957.935855
1209.289524,-4441.235652,-71859.757712,9030.512492
1209.292081,1184.329507,-70327.566716,5329.482782
1209.294638,-0.000000,-75843.454302,-2960.823768
1209.297195,6957.935855,-76762.768900,-9326.594869
1209.299752,17024.736666,-75690.235202,-8882.471304
1209.302309,9326.594869,-74770.920605,-10955.047942
1209.304866,-3256.906145,-72932.291410,-8438.347739
1209.307423,-592.164754,-73698.386908,-7105.977043
1209.309980,-4737.318029,-74770.920605,1924.535449
1209.312537,6069.688724,-75383.797003,444.123565
1209.315093,14508.036463,-76915.987999,1776.494261
1209.317650,-8586.388927,-75230.577904,6513.812290
1209.320207,-10214.842000,-73085.510509,6217.729913
1209.322764,-21465.972318,-72625.853210,23834.631332
1209.325321,-2960.823768,-75077.358804,13767.830521
1209.327878,3108.864956,-76456.330700,7698.141797
1209.330435,296.082377,-76915.987999,2220.617826
1209.332968,-1036.288319,-73391.948708,-1480.411884
1209.335501,-17468.860231,-73545.167808,13175.665768
1209.338034,-14508.036463,-71706.538613,13471.748144
1209.340567,-0.000000,-75383.797003,10807.006753
1209.343100,-13027.624579,-78141.740796,1776.494261
1209.345633,9474.636058,-75077.358804,-1776.494261
1209.348166,-14804.118840,-70327.566716,12583.501014
1209.350699,-32124.937883,-71246.881314,20725.766376
1209.353232,2220.617826,-74004.825107,20873.807564
1209.355765,-10658.965565,-77528.864398,14952.160028
1209.358298,9474.636058,-75690.235202,-4441.235652
1209.360831,-2960.823768,-75537.016103,3997.112087
1209.363364,-17320.819043,-71553.319513,7994.224174
1209.365897,-6809.894666,-72166.195912,9918.759623
1209.368430,17912.983796,-74311.263306,-10955.047942
1209.370963,11251.130318,-75383.797003,-18505.148550
1209.373496,10955.047942,-76149.892501,-8882.471304
1209.376029,3404.947333,-73545.167808,-7254.018232
1209.378562,-592.164754,-72472.634111,-592.164754
1209.381095,1776.494261,-73238.729609,444.123565
1209.383628,9030.512492,-73698.386908,-10955.047942
1209.386161,9474.636058,-75383.797003,-7846.182985
1209.388694,10362.883188,-74770.920605,-3552.988522
1209.391227,4885.359217,-72319.415011,-3997.112087
1209.393760,14211.954086,-70634.004916,3849.070898
1209.396293,-17912.983796,-72625.853210,5921.647536
1209.398826,-5181.441594,-77222.426198,-11251.130318
1209.401360,21465.972318,-75843.454302,-8734.430116
1209.403893,-444.123565,-74464.482406,-17764.942608
1209.406426,-5477.523971,-71400.100414,-17024.736666
1209.408959,6661.853478,-73391.948708,3108.864956
1209.411492,-592.164754,-74158.044206,-6365.771101
1209.414025,-148.041188,-75383.797003,8882.471304
1209.416558,22058.137072,-74924.139704,-7105.977043
1209.419091,-15248.242405,-75690.235202,10510.924376
1209.421624,-16432.571912,-75843.454302,19097.313304
1209.424157,-2960.823768,-71859.757712,17320.819043
1209.426690,-18357.107362,-73391.948708,7254.018232
1209.429223,9474.636058,-75383.797003,1332.370696
1209.431756,-3108.864956,-77222.426198,444.123565
1209.434298,-5921.647536,-74004.825107,2812.782580
1209.436841,-11103.089130,-73085.510509,15692.365970
1209.439383,-11399.171507,-73238.729609,13323.706956
1209.441926,-15248.242405,-75383.797003,7698.141797
1209.444468,22798.343014,-79673.931792,-3701.029710
1209.447011,-3108.864956,-74158.044206,9326.594869
1209.449553,1036.288319,-70480.785816,8882.471304
1209.452096,-2812.782580,-69561.471218,20873.807564
1209.454638,-17468.860231,-76609.549800,11103.089130
1209.457181,5329.482782,-75537.016103,3404.947333
1209.459723,-3404.947333,-77835.302597,6069.688724
1209.462266,-2516.700203,-72472.634111,2960.823768
1209.464808,-7698.141797,-71859.757712,15988.448347
1209.467351,-9770.718434,-70940.443115,-3404.947333
1209.469893,17616.901420,-73698.386908,-14656.077652
1209.472435,13027.624579,-76149.892501,-13027.624579
1209.474978,9770.718434,-73698.386908,-14508.036463
1209.477520,-3404.947333,-73851.606007,-148.041188
1209.480063,-592.164754,-72012.976812,-5625.565159
1209.482605,-4145.153275,-73391.948708,592.164754
1209.485148,20429.683999,-75383.797003,-7550.100608
1209.487690,11843.295072,-74770.920605,-7550.100608
1209.490233,4737.318029,-75690.235202,-15396.283594
1209.492775,26055.249158,-72166.195912,-10807.006753
1209.495318,148.041188,-72625.853210,20725.766376
1209.497860,-13175.665768,-75230.577904,4145.153275
1209.500403,40415.244433,-75843.454302,-15692.365970
1209.502945,-16136.489536,-77222.426198,-16284.530724
1209.505488,14656.077652,-74004.825107,-23390.507767
1209.508030,3256.906145,-73085.510509,1628.453072
1209.510573,5033.400406,-70634.004916,-10955.047942
1209.513115,-1776.494261,-75383.797003,7254.018232
1209.515658,16876.695478,-75230.577904,-2812.782580
1209.518200,-7254.018232,-74617.701505,-2960.823768
1209.520743,-4737.318029,-75537.016103,6957.935855
1209.523285,-25907.207970,-73545.167808,22058.137072
1209.525828,4293.194464,-71400.100414,18505.148550
1209.528370,-8882.471304,-74158.044206,10510.924376
1209.530912,15100.201217,-76303.111601,-2812.782580
1209.533455,-8142.265362,-75077.358804,2516.700203
1209.536006,-2368.659014,-71400.100414,9326.594869
1209.538556,2812.782580,-69408.252119,9918.759623
1209.541107,-16580.613101,-71246.881314,17172.777854
1209.543657,5329.482782,-76762.768900,-7550.100608
1209.546208,7254.018232,-79061.055394,2072.576638
1209.548759,-32717.102636,-74311.263306,9178.553681
1209.551309,-5181.441594,-69867.909418,18949.272115
1209.553860,-5329.482782,-71859.757712,25611.125593
1209.556410,-15248.242405,-75996.673402,11251.130318
1209.558961,11843.295072,-76915.987999,592.164754
1209.561512,-7254.018232,-77682.083497,296.082377
1209.564062,-8438.347739,-72932.291410,11695.253884
1209.566613,-13619.789333,-71553.319513,8290.306550
1209.569163,-444.123565,-73391.948708,1332.370696
1209.571714,32272.979071,-75690.235202,-12583.501014
1209.574265,3997.112087,-75537.016103,-8734.430116
1209.576815,1776.494261,-74617.701505,-11843.295072
1209.579366,2960.823768,-73238.729609,-1184.329507
1209.581917,-14359.995275,-73698.386908,592.164754
1209.584467,19393.395680,-72472.634111,296.082377
1209.587018,14508.036463,-74924.139704,-6069.688724
1209.589568,4145.153275,-77835.302597,296.082377
1209.592119,-7254.018232,-74158.044206,1332.370696
1209.594670,7550.100608,-71859.757712,-8882.471304
1209.597220,5921.647536,-71553.319513,4885.359217
1209.599771,4737.318029,-77682.083497,-4589.276840
1209.602321,13471.748144,-75230.577904,-18653.189738
1209.604872,-2960.823768,-75383.797003,-11547.212695
1209.607423,19245.354492,-71246.881314,-15544.324782
1209.609973,-8438.347739,-72779.072310,-4589.276840
1209.612524,-11103.089130,-72932.291410,-888.247130
1209.615074,24574.837274,-74311.263306,-444.123565
1209.617625,-9326.594869,-76915.987999,3552.988522
1209.620176,3849.070898,-74464.482406,5477.523971
1209.622726,-24870.919651,-75996.673402,15840.407159
1209.625277,-12139.377449,-69101.813920,14063.912898
1209.627827,-9326.594869,-74311.263306,8438.347739
1209.630378,10214.842000,-76915.987999,-1924.535449
1209.632929,-6957.935855,-76915.987999,3552.988522
1209.635479,-10658.965565,-74464.482406,3404.947333
1209.638036,-34197.514520,-71553.319513,13471.748144
1209.640593,-17468.860231,-75690.235202,18949.272115
1209.643150,10658.965565,-74464.482406,-5329.482782
1209.645706,4293.194464,-77988.521696,-1184.329507
1209.648263,-12583.501014,-74158.044206,10510.924376
1209.650820,-14359.995275,-70787.224015,16580.613101
1209.653377,-21317.931130,-72012.976812,18949.272115
1209.655933,-7105.977043,-76456.330700,14656.077652
1209.658490,-296.082377,-76762.768900,3404.947333
1209.661047,592.164754,-77069.207099,-1036.288319
1209.663604,592.164754,-71553.319513,6069.688724
1209.666161,-24870.919651,-73085.510509,9030.512492
1209.668717,30792.567187,-72625.853210,-9918.759623
1209.671274,-2960.823768,-74770.920605,-20133.601622
1209.673831,10807.006753,-73391.948708,-14804.118840
1209.676388,4441.235652,-73698.386908,-6513.812290
1209.678944,-592.164754,-73238.729609,-6365.771101
1209.681501,-148.041188,-73545.167808,4293.194464
1209.684058,23538.548956,-74464.482406,-7846.182985
1209.686615,2664.741391,-73698.386908,-11843.295072
1209.689171,-7402.059420,-75230.577904,-592.164754
1209.691728,24722.878463,-72625.853210,-14211.954086
1209.694285,-13471.748144,-71706.538613,27239.578666
1209.696842,4885.359217,-72319.415011,-14211.954086
1209.699399,23242.466579,-74617.701505,-8438.347739
1209.701955,-5477.523971,-77835.302597,-7105.977043
1209.704512,23094.425390,-74311.263306,-19689.478057
1209.707069,-3404.947333,-74464.482406,-296.082377
1209.709626,-296.082377,-71400.100414,-13471.748144
1209.712182,-592.164754,-74924.139704,8734.430116
1209.714739,17024.736666,-73851.606007,-2960.823768
1209.717296,-3552.988522,-75230.577904,2516.700203
1209.719853,4145.153275,-76762.768900,5181.441594
1209.722409,-22798.343014,-73391.948708,19985.560434
1209.724966,-7105.977043,-72625.853210,11399.171507
1209.727523,-4589.276840,-73391.948708,6513.812290
1209.730080,6809.894666,-77069.207099,296.082377
1209.732636,-6069.688724,-74770.920605,5033.400406
1209.735193,-19097.313304,-73851.606007,2664.741391
1209.737750,-25907.207970,-71246.881314,9622.677246
1209.740312,-2960.823768,-72166.195912,3108.864956
1209.742874,-3552.988522,-79214.274493,1480.411884
1209.745436,-592.164754,-76609.549800,-4145.153275
1209.747998,-11991.336260,-74770.920605,22206.178260
1209.750560,-25907.207970,-71706.538613,16728.654289
1209.753122,-16284.530724,-72166.195912,21169.889941
1209.755684,-1036.288319,-76609.549800,11991.336260
1209.758246,4737.318029,-77375.645298,7254.018232
1209.760808,-8586.388927,-75230.577904,9326.594869
1209.763370,-3849.070898,-71093.662214,7254.018232
1209.765932,-10214.842000,-73851.606007,3997.112087
1209.768494,30792.567187,-74004.825107,-11991.336260
1209.771056,592.164754,-74617.701505,-17024.736666
1209.773618,12731.542202,-74158.044206,-17024.736666
1209.776180,148.041188,-73851.606007,-1184.329507
1209.778742,-2516.700203,-74617.701505,-1628.453072
1209.781304,-1332.370696,-72625.853210,888.247130
1209.783866,14211.954086,-75690.235202,-4589.276840
1209.786428,13767.830521,-75230.577904,-7254.018232
1209.788990,-3997.112087,-75690.235202,-7402.059420
1209.791552,8142.265362,-70174.347617,2812.782580
1209.794114,-6661.853478,-74464.482406,16136.489536
1209.796676,8734.430116,-74158.044206,-15692.365970
1209.799238,17320.819043,-75537.016103,-15544.324782
1209.801800,9030.512492,-75537.016103,-20133.601622
1209.804362,6513.812290,-72319.415011,-11695.253884
1209.806924,-148.041188,-73545.167808,-3404.947333
1209.809486,-5033.400406,-72472.634111,-296.082377
1209.812048,10362.883188,-75690.235202,592.164754
1209.814610,6661.853478,-75843.454302,1184.329507
1209.817172,-4293.194464,-75230.577904,6661.853478
1209.819734,-20873.807564,-75383.797003,22798.343014
1209.822301,-5773.606348,-71093.662214,21317.931130
1209.824867,-6069.688724,-74158.044206,11251.130318
1209.827434,5921.647536,-75077.358804,-1924.535449
1209.830000,1184.329507,-77222.426198,1036.288319
1209.832567,-8290.306550,-74464.482406,5329.482782
1209.835133,-4441.235652,-70940.443115,17468.860231
1209.837700,-18801.230927,-72319.415011,17912.983796
1209.840266,-16136.489536,-76149.892501,-6365.771101
1209.842833,24130.713709,-76915.987999,-11843.295072
1209.845400,-16432.571912,-75230.577904,15544.324782
1209.847966,-10807.006753,-70940.443115,17320.819043
1209.850533,-7994.224174,-71859.757712,23390.507767
1209.853099,-18801.230927,-74464.482406,9030.512492
1209.855666,1332.370696,-76149.892501,-1776.494261
1209.858232,-3552.988522,-76303.111601,4293.194464
1209.860799,-4293.194464,-71859.757712,6957.935855
1209.863365,-5773.606348,-72932.291410,6217.729913
1209.865932,10066.800811,-73851.606007,-18209.066173
1209.868498,7994.224174,-74158.044206,-11843.295072
1209.871065,22206.178260,-74311.263306,-11251.130318
1209.873631,2220.617826,-73238.729609,-3997.112087
1209.876198,444.123565,-75077.358804,-1776.494261
1209.878764,6069.688724,-73238.729609,-592.164754
1209.881331,14508.036463,-74004.825107,-5477.523971
1209.883898,7698.141797,-75690.235202,-7254.018232
1209.886464,10955.047942,-74004.825107,-5773.606348
1209.889031,-5477.523971,-75230.577904,5477.523971
1209.891597,-10658.965565,-72166.195912,5033.400406
1209.894164,5477.523971,-74158.044206,-7698.141797
1209.896730,10807.006753,-76149.892501,-13915.871710
1209.899297,8142.265362,-74924.139704,-14952.160028
1209.901863,7105.977043,-73545.167808,-19245.354492
1209.904430,-10807.006753,-72779.072310,-3997.112087
1209.906996,-1036.288319,-73698.386908,592.164754
1209.909563,5921.647536,-74311.263306,7254.018232
1209.912129,-5181.441594,-76609.549800,4737.318029
1209.914696,4441.235652,-74004.825107,6365.771101
1209.917262,-22206.178260,-75690.235202,19837.519246
1209.919829,-7550.100608,-70634.004916,13619.789333
1209.922395,-10658.965565,-73545.167808,13619.789333
1209.924966,11251.130318,-74770.920605,6069.688724
1209.927536,888.247130,-76456.330700,3552.988522
1209.930106,-7254.018232,-73238.729609,-0.000000
1209.932676,-11991.336260,-69714.690318,14804.118840
1209.935246,-11843.295072,-73698.386908,5921.647536
1209.937816,31384.731941,-72472.634111,3701.029710
1209.940386,-25018.960840,-79061.055394,14952.160028
1209.942957,29756.278868,-72932.291410,-1332.370696
1209.945527,-11103.089130,-73391.948708,27683.702231
1209.948097,-17912.983796,-70021.128517,3256.906145
1209.950667,5033.400406,-74617.701505,7550.100608
1209.953237,-7550.100608,-77835.302597,12583.501014
1209.955807,2220.617826,-74158.044206,7698.141797
1209.958377,-1776.494261,-73698.386908,9474.636058
1209.960947,-444.123565,-72319.415011,-1036.288319
1209.963518,22058.137072,-75537.016103,-8882.471304
1209.966088,2072.576638,-73545.167808,-11695.253884
1209.968658,3849.070898,-73391.948708,-15248.242405
1209.971228,296.082377,-73851.606007,-6661.853478
1209.973798,-0.000000,-74004.825107,148.041188
1209.976368,10955.047942,-75230.577904,-1776.494261
1209.978938,10955.047942,-74617.701505,-444.123565
1209.981508,21021.848753,-76149.892501,-6957.935855
1209.984079,-11547.212695,-74311.263306,-2072.576638
1209.986649,-5181.441594,-72012.976812,3108.864956
1209.989219,8438.347739,-71706.538613,1776.494261
1209.991789,13027.624579,-74617.701505,-9326.594869
1209.994359,10658.965565,-76609.549800,-13471.748144
1209.996929,3997.112087,-75077.358804,-18653.189738
1209.999499,-2368.659014,-73085.510509,-8882.471304
1210.002069,2072.576638,-72625.853210,-3849.070898
1210.004640,-2220.617826,-72472.634111,6809.894666
1210.007210,8438.347739,-74311.263306,-1332.370696
1210.009780,5625.565159,-74924.139704,-1036.288319
1210.012350,-14656.077652,-76915.987999,8586.388927
1210.014920,-18949.272115,-72625.853210,18061.024985
1210.017490,-9770.718434,-71859.757712,23390.507767
1210.020060,-5033.400406,-74158.044206,9622.677246
1210.022630,9474.636058,-75843.454302,-296.082377
1210.025201,-5329.482782,-75537.016103,-1184.329507
1210.027745,-13471.748144,-71400.100414,2072.576638
1210.030289,-25167.002028,-72319.415011,24278.754898
1210.032833,-5329.482782,-73391.948708,5625.565159
1210.035377,5773.606348,-78601.398095,10510.924376
1210.037921,-6661.853478,-75996.673402,-888.247130
1210.040465,6661.853478,-70327.566716,10066.800811
1210.043009,-26647.413912,-72472.634111,21021.848753
1210.045553,-11991.336260,-72625.853210,11695.253884
1210.048097,-2516.700203,-76915.987999,13619.789333
1210.050641,7254.018232,-75383.797003,-0.000000
1210.053185,-4293.194464,-72779.072310,9326.594869
1210.055729,-9770.718434,-72166.195912,-1332.370696
1210.058273,12139.377449,-74004.825107,-1184.329507
1210.060816,24722.878463,-75383.797003,-13027.624579
1210.063360,-2368.659014,-72166.195912,-9770.718434
1210.065904,-9178.553681,-75843.454302,-7254.018232
1210.068448,12139.377449,-71859.757712,-9918.759623
1210.070992,-6217.729913,-75383.797003,3552.988522
1210.073536,21169.889941,-73085.510509,-5477.523971
1210.076080,5329.482782,-75077.358804,-3404.947333
1210.078624,9622.677246,-74617.701505,-19393.395680
1210.081168,-9770.718434,-74311.263306,7698.141797
1210.083712,-10214.842000,-73391.948708,20577.725188
1210.086256,30940.608376,-73085.510509,-15988.448347
1210.088800,3404.947333,-77835.302597,-10658.965565
1210.091344,12435.459826,-74770.920605,-22058.137072
1210.093888,11843.295072,-74311.263306,-11399.171507
1210.096432,-5921.647536,-72779.072310,-3997.112087
1210.098976,5477.523971,-72012.976812,-2664.741391
1210.101520,8142.265362,-75383.797003,2664.741391
1210.104064,-0.000000,-74311.263306,-6217.729913
1210.106608,-592.164754,-75690.235202,6069.688724
1210.109152,-26647.413912,-75537.016103,22354.219448
1210.111696,-296.082377,-71553.319513,19541.436869
1210.114240,-12139.377449,-73851.606007,10510.924376
1210.116784,296.082377,-74770.920605,-1776.494261
1210.119328,3256.906145,-76149.892501,5625.565159
1210.121872,-7402.059420,-74311.263306,5477.523971
1210.124416,-20873.807564,-71553.319513,10955.047942
1210.126960,-2368.659014,-73545.167808,19689.478057
1210.129512,5181.441594,-75843.454302,-1776.494261
1210.132064,-296.082377,-75843.454302,2368.659014
1210.134615,5477.523971,-72319.415011,8142.265362
1210.137167,-12879.583391,-70940.443115,22058.137072
1210.139718,-15692.365970,-72932.291410,19245.354492
1210.142270,1184.329507,-75996.673402,8734.430116
1210.144822,-4145.153275,-76303.111601,1924.535449
1210.147373,-4293.194464,-73391.948708,7254.018232
1210.149925,4441.235652,-74004.825107,9918.759623
1210.152477,2812.782580,-74770.920605,-9178.553681
1210.155028,17912.983796,-75230.577904,-7994.224174
1210.157580,5477.523971,-74004.825107,-7254.018232
1210.160132,-2220.617826,-73851.606007,-6809.894666
1210.162683,10658.965565,-74158.044206,-8290.306550
1210.165235,1036.288319,-74311.263306,-592.164754
1210.167786,-3404.947333,-75843.454302,-1332.370696
1210.170338,18801.230927,-76303.111601,4293.194464
1210.172890,-5181.441594,-77375.645298,11843.295072
1210.175441,7402.059420,-74924.139704,-18505.148550
1210.177993,33605.349767,-69101.813920,-10214.842000
1210.180545,-15248.242405,-74617.701505,2664.741391
1210.183096,33457.308578,-75077.358804,-18653.189738
1210.185648,-9326.594869,-76456.330700,-11399.171507
1210.188200,-2960.823768,-72932.291410,-27535.661042
1210.190751,10658.965565,-74004.825107,3701.029710
1210.193303,-10066.800811,-72472.634111,-7550.100608
1210.195855,15100.201217,-72166.195912,-10066.800811
1210.198406,2072.576638,-77375.645298,9178.553681
1210.200958,-1480.411884,-74464.482406,740.205942
1210.203509,-26499.372724,-77222.426198,28275.866984
1210.206061,-3701.029710,-70634.004916,19097.313304
1210.208613,-10362.883188,-74770.920605,13027.624579
1210.211164,13323.706956,-74617.701505,592.164754
1210.213716,-7254.018232,-76762.768900,-1332.370696
1210.216268,-13027.624579,-74464.482406,5181.441594
1210.218819,-20577.725188,-72319.415011,29756.278868
1210.221371,-13915.871710,-73545.167808,296.082377
1210.223923,-5329.482782,-75230.577904,-3997.112087
1210.226474,8734.430116,-78141.740796,-148.041188
1210.229026,-7550.100608,-71400.100414,13027.624579
1210.231584,-4885.359217,-71706.538613,22502.260637
1210.234143,4589.276840,-74311.263306,16136.489536
1210.236701,-15544.324782,-77528.864398,8882.471304
1210.239259,1924.535449,-75996.673402,-2812.782580
1210.241817,-1924.535449,-72472.634111,6809.894666
1210.244376,-14508.036463,-73238.729609,3997.112087
1210.246934,24426.796086,-73238.729609,-14656.077652
1210.249492,-1924.535449,-74311.263306,-15100.201217
1210.252051,17320.819043,-72625.853210,-12879.583391
1210.254609,3256.906145,-72932.291410,-3997.112087
1210.257167,2516.700203,-74158.044206,-11399.171507
1210.259726,5181.441594,-73851.606007,-296.082377
1210.262284,5625.565159,-74924.139704,-3997.112087
1210.264842,16728.654289,-75690.235202,592.164754
1210.267401,6513.812290,-75843.454302,-3849.070898
1210.269959,296.082377,-72012.976812,-7254.018232
1210.272517,-5625.565159,-72012.976812,8290.306550
1210.275076,24426.796086,-73391.948708,-11399.171507
1210.277634,2368.659014,-76456.330700,-17764.942608
1210.280192,6069.688724,-75996.673402,-17024.736666
1210.282751,4145.153275,-72625.853210,-14804.118840
1210.285309,-11103.089130,-72472.634111,-3552.988522
1210.287867,6513.812290,-71859.757712,2220.617826
1210.290426,9918.759623,-75077.358804,-4885.359217
1210.292984,-6809.894666,-75077.358804,5477.523971
1210.295542,-5033.400406,-76609.549800,3108.864956
1210.298101,-23390.507767,-73391.948708,23686.590144
1210.300659,-4441.235652,-72472.634111,16432.571912
1210.303217,3849.070898,-73238.729609,10955.047942
1210.305776,-9918.759623,-77222.426198,-4885.359217
1210.308334,3256.906145,-75383.797003,2072.576638
1210.310892,13767.830521,-71706.538613,9474.636058
1210.313451,-22650.301825,-69408.252119,14656.077652
1210.316009,-16580.613101,-75996.673402,7846.182985
1210.318567,27683.702231,-76762.768900,-6957.935855
1210.321126,-29756.278868,-76456.330700,14656.077652
1210.323684,14211.954086,-70940.443115,11251.130318
1210.326242,-17764.942608,-73238.729609,28127.825796
1210.328801,-19985.560434,-72932.291410,5329.482782
1210.331359,15100.201217,-75230.577904,-592.164754
1210.333922,-16432.571912,-76915.987999,15692.365970
1210.336485,8882.471304,-72319.415011,2072.576638
1210.339049,7550.100608,-75690.235202,5329.482782
1210.341612,13175.665768,-73391.948708,-20725.766376
1210.344175,3256.906145,-74004.825107,-2812.782580
1210.346738,7550.100608,-72625.853210,-20577.725188
1210.349302,-4589.276840,-72779.072310,-12139.377449
1210.351865,7846.182985,-76303.111601,2072.576638
1210.354428,8438.347739,-75077.358804,-2072.576638
1210.356992,10658.965565,-76609.549800,1924.535449
1210.359555,27535.661042,-74158.044206,-5033.400406
1210.362118,-17468.860231,-74617.701505,-1184.329507
1210.364681,6957.935855,-73698.386908,6513.812290
1210.367245,28571.949361,-71859.757712,-6069.688724
1210.369808,4145.153275,-76456.330700,-13767.830521
1210.372371,14063.912898,-74617.701505,-19985.560434
1210.374934,15692.365970,-74924.139704,-13767.830521
1210.377498,-11103.089130,-72012.976812,-8734.430116
1210.380061,12583.501014,-71859.757712,-740.205942
1210.382624,-1480.411884,-74158.044206,3256.906145
1210.385187,4441.235652,-75537.016103,-4885.359217
1210.387751,2812.782580,-75383.797003,2072.576638
1210.390314,-31532.773129,-75996.673402,22058.137072
1210.392877,-592.164754,-71706.538613,18949.272115
1210.395441,-6957.935855,-74004.825107,16876.695478
1210.398004,10066.800811,-73851.606007,-5033.400406
1210.400567,-15988.448347,-75230.577904,-1036.288319
1210.403130,-7402.059420,-74158.044206,1332.370696
1210.405694,-17024.736666,-72012.976812,4737.318029
1210.408257,-17172.777854,-73545.167808,21317.931130
1210.410820,1184.329507,-76609.549800,-5181.441594
1210.413383,14508.036463,-75690.235202,2368.659014
1210.415947,-10510.924376,-72166.195912,9326.594869
1210.418510,-5921.647536,-71093.662214,19097.313304
1210.421073,-12583.501014,-74004.825107,20281.642811
1210.423636,-2368.659014,-74770.920605,5181.441594
1210.426200,-9622.677246,-74311.263306,7698.141797
1210.428763,-8142.265362,-74004.825107,2072.576638
1210.431326,13471.748144,-73545.167808,2220.617826
1210.433889,22798.343014,-75383.797003,-14063.912898
1210.436457,-3849.070898,-73391.948708,-10066.800811
1210.439024,7254.018232,-73391.948708,-16136.489536
1210.441592,-1036.288319,-72319.415011,-4589.276840
1210.444159,3404.947333,-75996.673402,2960.823768
1210.446726,14359.995275,-75383.797003,-148.041188
1210.449294,2516.700203,-76149.892501,2220.617826
1210.451861,-5921.647536,-75996.673402,-2960.823768
1210.454428,2368.659014,-75996.673402,-20133.601622
1210.456996,5033.400406,-73085.510509,15248.242405
1210.459563,-17468.860231,-74311.263306,-3256.906145
1210.462130,23538.548956,-74770.920605,-4885.359217
1210.464698,11547.212695,-76456.330700,-4885.359217
1210.467265,4737.318029,-75077.358804,-27239.578666
1210.469832,-10066.800811,-73238.729609,-7254.018232
