#time,accel_x,accel_y,accel_z
255.874759,-3552.988522,-74464.482406,-1036.288319
255.877325,-3108.864956,-74464.482406,-888.247130
255.879890,-4293.194464,-75077.358804,-296.082377
255.882455,-3552.988522,-74617.701505,-888.247130
255.885021,-3552.988522,-74770.920605,-444.123565
255.887586,-4293.194464,-74464.482406,-1480.411884
255.890151,-3404.947333,-74158.044206,-1184.329507
255.892717,-3701.029710,-74464.482406,-740.205942
255.895282,-4441.235652,-74004.825107,-1332.370696
255.897847,-3256.906145,-74464.482406,-740.205942
255.900413,-4145.153275,-74311.263306,-888.247130
255.902978,-3849.070898,-74617.701505,-888.247130
255.905543,-4293.194464,-74464.482406,-1332.370696
255.908109,-4145.153275,-74311.263306,-1184.329507
255.910674,-3404.947333,-74617.701505,-888.247130
255.913239,-3997.112087,-74311.263306,-1628.453072
255.915805,-3701.029710,-74617.701505,-592.164754
255.918370,-3849.070898,-74617.701505,-1332.370696
255.920935,-3404.947333,-74464.482406,-1036.288319
255.923501,-4145.153275,-74004.825107,-1036.288319
255.926066,32569.061448,-75996.673402,-888.247130
255.928631,-50778.127621,-72472.634111,-1628.453072
255.931197,-10362.883188,-73851.606007,1628.453072
255.933610,16728.654289,-76303.111601,-3552.988522
255.936024,-29312.155303,-72779.072310,-0.000000
255.938438,19689.478057,-75230.577904,-4145.153275
255.940851,-34789.679274,-74464.482406,2220.617826
255.943265,6069.688724,-75843.454302,-4145.153275
255.945679,-1332.370696,-76609.549800,3404.947333
255.948092,-4441.235652,-75077.358804,-2220.617826
255.950506,10955.047942,-75996.673402,-0.000000
255.952920,-15692.365970,-73391.948708,-444.123565
255.955333,16284.530724,-74311.263306,-1036.288319
255.957747,-19689.478057,-73698.386908,-2960.823768
255.960161,-2220.617826,-74617.701505,-4885.359217
255.962574,-16136.489536,-73851.606007,1924.535449
255.964988,-17468.860231,-73545.167808,-888.247130
255.967402,4293.194464,-75690.235202,592.164754
255.969816,-10955.047942,-74311.263306,-888.247130
255.972229,-20873.807564,-74617.701505,-1036.288319
255.974643,-22798.343014,-75230.577904,2368.659014
255.977057,-21317.931130,-73545.167808,-148.041188
255.979470,-13619.789333,-72472.634111,-4589.276840
255.981884,-28868.031738,-74617.701505,1480.411884
255.984298,-11695.253884,-72932.291410,-3849.070898
255.986711,15248.242405,-74924.139704,-1776.494261
255.989125,-27831.743419,-74770.920605,-1332.370696
255.991539,9326.594869,-75383.797003,-296.082377
255.993952,3404.947333,-74004.825107,-148.041188
255.996366,15692.365970,-74311.263306,-2072.576638
255.998780,-28571.949361,-74311.263306,1924.535449
256.001193,7105.977043,-72779.072310,-7254.018232
256.003607,8586.388927,-71553.319513,-8882.471304
256.006021,-14952.160028,-74464.482406,3849.070898
256.008434,-11103.089130,-74770.920605,-1924.535449
256.010848,-25759.166782,-75383.797003,5033.400406
256.013262,-5033.400406,-74158.044206,-2812.782580
256.015676,-16580.613101,-74770.920605,-1184.329507
256.018089,-8586.388927,-74617.701505,-1184.329507
256.020503,3552.988522,-74311.263306,-2072.576638
256.022917,-14952.160028,-73698.386908,-592.164754
256.025330,-8142.265362,-74464.482406,-1924.535449
256.027744,-9474.636058,-73085.510509,-148.041188
256.030209,-15840.407159,-74004.825107,-592.164754
256.032674,5181.441594,-74311.263306,-3108.864956
256.035140,-9326.594869,-74924.139704,1332.370696
256.037605,-4737.318029,-74004.825107,-5625.565159
256.040070,5921.647536,-74158.044206,1480.411884
256.042535,740.205942,-74924.139704,592.164754
256.045001,-444.123565,-76456.330700,1184.329507
256.047466,-1628.453072,-76149.892501,-6217.729913
256.049931,-444.123565,-74617.701505,-1184.329507
256.052396,-3849.070898,-73698.386908,1628.453072
256.054862,3849.070898,-74158.044206,592.164754
256.057327,2368.659014,-75843.454302,-740.205942
256.059792,148.041188,-75230.577904,-2220.617826
256.062257,4145.153275,-74617.701505,740.205942
256.064723,-2072.576638,-74617.701505,-1184.329507
256.067188,15396.283594,-74924.139704,-2960.823768
256.069653,-1480.411884,-74158.044206,-296.082377
256.072118,-296.082377,-72012.976812,-2220.617826
256.074584,6957.935855,-74004.825107,5477.523971
256.077049,17616.901420,-76609.549800,-4737.318029
256.079514,11103.089130,-75996.673402,3404.947333
256.081979,-25759.166782,-73085.510509,-1628.453072
256.084444,28127.825796,-74617.701505,444.123565
256.086910,-24722.878463,-73545.167808,592.164754
256.089375,7994.224174,-76303.111601,-2812.782580
256.091840,35381.844028,-78141.740796,5033.400406
256.094305,-31680.814318,-72625.853210,-148.041188
256.096771,16580.613101,-78294.959896,2960.823768
256.099236,-17912.983796,-72625.853210,-740.205942
256.101701,-21910.095883,-76303.111601,1480.411884
256.104166,14063.912898,-74004.825107,1332.370696
256.106632,-0.000000,-75996.673402,2072.576638
256.109097,12879.583391,-75383.797003,-6365.771101
256.111562,-15988.448347,-73545.167808,1184.329507
256.114027,13175.665768,-75537.016103,-1628.453072
256.116493,2812.782580,-74770.920605,-296.082377
256.118958,2664.741391,-72472.634111,-888.247130
256.121423,1628.453072,-75230.577904,-1776.494261
256.123888,5329.482782,-75230.577904,1036.288319
256.126354,-5329.482782,-75996.673402,-2812.782580
256.128855,2072.576638,-75077.358804,-4441.235652
256.131357,5329.482782,-73698.386908,-4441.235652
256.133859,-24870.919651,-71706.538613,4589.276840
256.136361,-4441.235652,-73545.167808,-296.082377
256.138863,-15248.242405,-73698.386908,148.041188
256.141365,-3404.947333,-75996.673402,-4293.194464
256.143867,-11991.336260,-74004.825107,-1184.329507
256.146368,-592.164754,-74311.263306,-2072.576638
256.148870,-1776.494261,-74617.701505,-1332.370696
256.151372,-21465.972318,-72472.634111,1332.370696
256.153874,-888.247130,-74464.482406,-1776.494261
256.156376,-20725.766376,-73851.606007,888.247130
256.158878,3108.864956,-75383.797003,-6661.853478
256.161380,-20725.766376,-73851.606007,740.205942
256.163881,-32717.102636,-74617.701505,-148.041188
256.166383,-592.164754,-73238.729609,-2220.617826
256.168885,-22206.178260,-70174.347617,-4885.359217
256.171387,-24426.796086,-76456.330700,592.164754
256.173889,20133.601622,-73085.510509,-4737.318029
256.176391,-13175.665768,-76149.892501,4293.194464
256.178893,-24278.754898,-71400.100414,-3256.906145
256.181394,29904.320057,-78754.617194,3701.029710
256.183896,-24722.878463,-73851.606007,3404.947333
256.186398,-33457.308578,-74464.482406,-4145.153275
256.188900,4441.235652,-72779.072310,-7550.100608
256.191402,-21317.931130,-75996.673402,1776.494261
256.193904,-19541.436869,-72319.415011,-0.000000
256.196406,-18357.107362,-75077.358804,-1036.288319
256.198907,-26499.372724,-72779.072310,1036.288319
256.201409,1924.535449,-75996.673402,-444.123565
256.203911,-13323.706956,-73085.510509,-1924.535449
256.206413,-13619.789333,-74004.825107,148.041188
256.208915,-1776.494261,-75383.797003,-2368.659014
256.211417,-13323.706956,-73238.729609,1184.329507
256.213918,-8290.306550,-75230.577904,-3701.029710
256.216420,-7105.977043,-73851.606007,1332.370696
256.218922,-12731.542202,-73698.386908,-740.205942
256.221424,148.041188,-74158.044206,-3849.070898
256.223926,-3997.112087,-74770.920605,-148.041188
256.226428,-6809.894666,-74464.482406,-6809.894666
256.228955,11547.212695,-73545.167808,4589.276840
256.231483,-592.164754,-74158.044206,-1332.370696
256.234010,5921.647536,-75690.235202,1480.411884
256.236538,-6957.935855,-77222.426198,-6661.853478
256.239065,6217.729913,-75843.454302,-888.247130
256.241593,-9178.553681,-73085.510509,2072.576638
256.244120,-148.041188,-74311.263306,-1924.535449
256.246648,8734.430116,-74311.263306,1184.329507
256.249175,-1184.329507,-74617.701505,-1036.288319
256.251703,-1332.370696,-74617.701505,-2220.617826
256.254230,5181.441594,-74311.263306,-2368.659014
256.256757,3849.070898,-75690.235202,-4145.153275
256.259285,-592.164754,-73851.606007,888.247130
256.261812,7846.182985,-70480.785816,-8438.347739
256.264340,-1184.329507,-75843.454302,3997.112087
256.266867,-38638.750172,-70327.566716,-11399.171507
256.269395,58032.145853,-78754.617194,888.247130
256.271922,-38786.791361,-72779.072310,3256.906145
256.274450,4589.276840,-74617.701505,-4145.153275
256.276977,22058.137072,-74770.920605,-1776.494261
256.279505,17912.983796,-78294.959896,4441.235652
256.282032,-9030.512492,-74617.701505,-1184.329507
256.284560,-8882.471304,-75537.016103,3701.029710
256.287087,-0.000000,-74311.263306,-4145.153275
256.289615,-17912.983796,-75843.454302,5329.482782
256.292142,24870.919651,-74311.263306,-2664.741391
256.294670,-23538.548956,-73391.948708,-148.041188
256.297197,19393.395680,-75230.577904,-2664.741391
256.299725,6957.935855,-74464.482406,-2812.782580
256.302252,-1924.535449,-74004.825107,1776.494261
256.304780,13175.665768,-75537.016103,-1036.288319
256.307307,-6217.729913,-74770.920605,-1480.411884
256.309849,10214.842000,-74924.139704,740.205942
256.312392,-10214.842000,-73698.386908,1480.411884
256.314934,7402.059420,-75996.673402,-2220.617826
256.317476,-2664.741391,-74924.139704,-1184.329507
256.320018,-8586.388927,-73238.729609,-740.205942
256.322561,-21465.972318,-72779.072310,1036.288319
256.325103,-3997.112087,-74924.139704,888.247130
256.327645,-13767.830521,-74617.701505,-4293.194464
256.330188,-9030.512492,-74617.701505,2220.617826
256.332730,1628.453072,-74770.920605,-5773.606348
256.335272,-24130.713709,-73085.510509,1924.535449
256.337815,-888.247130,-74770.920605,-2072.576638
256.340357,-18357.107362,-73545.167808,740.205942
256.342899,-6661.853478,-73851.606007,-0.000000
256.345441,5033.400406,-75690.235202,-2220.617826
256.347984,-29904.320057,-73391.948708,148.041188
256.350526,-12435.459826,-76609.549800,740.205942
256.353068,-20429.683999,-74924.139704,-0.000000
256.355611,-14656.077652,-70634.004916,-10807.006753
256.358153,-24130.713709,-76456.330700,5773.606348
256.360695,26055.249158,-73698.386908,-4293.194464
256.363237,-16580.613101,-76303.111601,444.123565
256.365780,-22206.178260,-72166.195912,1332.370696
256.368322,-4885.359217,-76762.768900,-2072.576638
256.370864,7254.018232,-74311.263306,2960.823768
256.373407,13175.665768,-75077.358804,-1776.494261
256.375949,-28275.866984,-74004.825107,5773.606348
256.378491,22798.343014,-71553.319513,-7994.224174
256.381033,-10214.842000,-74924.139704,3404.947333
256.383576,-12731.542202,-72472.634111,-2664.741391
256.386118,-13175.665768,-77069.207099,3849.070898
256.388660,-5181.441594,-74158.044206,-3552.988522
256.391203,-5773.606348,-73391.948708,1184.329507
256.393745,-9770.718434,-73698.386908,-2368.659014
256.396287,-5625.565159,-74770.920605,-1480.411884
256.398830,-13175.665768,-74004.825107,-148.041188
256.401372,-4145.153275,-74004.825107,-1332.370696
256.403914,-17172.777854,-73391.948708,-0.000000
256.406456,9622.677246,-75690.235202,-4145.153275
256.408999,-16432.571912,-74004.825107,444.123565
256.411552,-1184.329507,-74617.701505,-5033.400406
256.414105,7402.059420,-74464.482406,3849.070898
256.416658,4441.235652,-73698.386908,2072.576638
256.419212,4737.318029,-75383.797003,-888.247130
256.421765,-4885.359217,-76609.549800,-2368.659014
256.424318,8586.388927,-76456.330700,-2220.617826
256.426871,-15692.365970,-73238.729609,2368.659014
256.429425,9474.636058,-73851.606007,-2220.617826
256.431978,6069.688724,-75077.358804,-444.123565
256.434531,6365.771101,-75077.358804,-3108.864956
256.437085,-1924.535449,-74004.825107,-888.247130
256.439638,14508.036463,-74617.701505,-592.164754
256.442191,15248.242405,-73851.606007,-5921.647536
256.444744,-7105.977043,-74464.482406,1332.370696
256.447298,20281.642811,-75230.577904,592.164754
256.449851,20281.642811,-74311.263306,-6661.853478
256.452404,-23390.507767,-77375.645298,7994.224174
256.454957,-8290.306550,-72472.634111,-10510.924376
256.457511,31236.690752,-78601.398095,5181.441594
256.460064,-4737.318029,-72625.853210,-1628.453072
256.462617,-12879.583391,-72932.291410,-4145.153275
256.465170,-4737.318029,-74464.482406,-296.082377
256.467724,14359.995275,-76456.330700,1036.288319
256.470277,-12139.377449,-78294.959896,10214.842000
256.472830,20281.642811,-72779.072310,-8290.306550
256.475383,13027.624579,-75230.577904,2072.576638
256.477937,-444.123565,-73085.510509,-7254.018232
256.480490,3256.906145,-75843.454302,296.082377
256.483043,1480.411884,-74617.701505,-2516.700203
256.485596,4293.194464,-75077.358804,-148.041188
256.488150,148.041188,-75077.358804,-148.041188
256.490703,-888.247130,-74311.263306,-3404.947333
256.493256,3108.864956,-74464.482406,-444.123565
256.495810,-6809.894666,-73698.386908,-1184.329507
256.498363,7254.018232,-74617.701505,-1480.411884
256.500916,-5329.482782,-76303.111601,-1628.453072
256.503469,-12583.501014,-73545.167808,296.082377
256.506023,-11547.212695,-73085.510509,-1332.370696
256.508576,-7402.059420,-73698.386908,3552.988522
256.511129,-7550.100608,-75537.016103,-9030.512492
256.513690,-13323.706956,-73545.167808,1480.411884
256.516251,3404.947333,-74924.139704,592.164754
256.518812,-14804.118840,-73085.510509,-3404.947333
256.521373,-1776.494261,-74770.920605,1332.370696
256.523933,-19837.519246,-73391.948708,-1924.535449
256.526494,-15396.283594,-73545.167808,148.041188
256.529055,3849.070898,-76303.111601,2220.617826
256.531616,-3404.947333,-74004.825107,-4885.359217
256.534177,9474.636058,-73545.167808,-592.164754
256.536738,-5477.523971,-76456.330700,2664.741391
256.539299,-888.247130,-73391.948708,296.082377
256.541860,16728.654289,-77835.302597,-592.164754
256.544421,-36566.173535,-72472.634111,-1332.370696
256.546981,-1332.370696,-74158.044206,2220.617826
256.549542,17468.860231,-75230.577904,-4737.318029
256.552103,-4589.276840,-74770.920605,2664.741391
256.554664,-28423.908173,-73698.386908,-0.000000
256.557225,-148.041188,-74924.139704,-2516.700203
256.559786,-12139.377449,-72779.072310,-7254.018232
256.562347,-12287.418637,-74004.825107,1184.329507
256.564908,21169.889941,-75843.454302,-2220.617826
256.567469,-16580.613101,-73545.167808,592.164754
256.570029,3552.988522,-75230.577904,-3849.070898
256.572590,-6365.771101,-73391.948708,-592.164754
256.575151,-13027.624579,-73698.386908,148.041188
256.577712,-1480.411884,-74311.263306,-3404.947333
256.580273,-19985.560434,-74004.825107,444.123565
256.582834,2812.782580,-74311.263306,-740.205942
256.585395,-13471.748144,-74617.701505,2072.576638
256.587956,-8290.306550,-75077.358804,-2072.576638
256.590516,1184.329507,-74924.139704,-2664.741391
256.593077,-16876.695478,-74924.139704,-1924.535449
256.595638,20281.642811,-73545.167808,1184.329507
256.598199,-7698.141797,-73851.606007,444.123565
256.600760,7254.018232,-75843.454302,-888.247130
256.603321,1480.411884,-77528.864398,-2368.659014
256.605882,-5773.606348,-73545.167808,-2664.741391
256.608443,1924.535449,-73238.729609,740.205942
256.611004,-296.082377,-73851.606007,-740.205942
256.613564,7105.977043,-74311.263306,-148.041188
256.616131,7698.141797,-75996.673402,-1184.329507
256.618697,-9326.594869,-73238.729609,-2812.782580
256.621264,20725.766376,-74311.263306,-3552.988522
256.623830,444.123565,-74770.920605,-3108.864956
256.626396,9178.553681,-76456.330700,7698.141797
256.628963,30644.525999,-74464.482406,-3108.864956
256.631529,-23834.631332,-76762.768900,2960.823768
256.634096,888.247130,-73545.167808,-8734.430116
256.636662,23686.590144,-77682.083497,2960.823768
256.639228,-15692.365970,-74158.044206,3108.864956
256.641795,-40415.244433,-72319.415011,-2516.700203
256.644361,34937.720462,-75077.358804,-3701.029710
256.646928,-21169.889941,-76609.549800,1776.494261
256.649494,5477.523971,-72319.415011,-12879.583391
256.652060,-3701.029710,-77528.864398,3256.906145
256.654627,-24426.796086,-73391.948708,-1036.288319
256.657193,15248.242405,-74924.139704,1776.494261
256.659760,148.041188,-75230.577904,1480.411884
256.662326,4737.318029,-74004.825107,-740.205942
256.664892,7994.224174,-75996.673402,-2664.741391
256.667459,-888.247130,-74158.044206,-296.082377
256.670025,-148.041188,-76303.111601,-296.082377
256.672592,1924.535449,-74158.044206,1628.453072
256.675158,3404.947333,-75383.797003,-888.247130
256.677724,-6809.894666,-74311.263306,-3701.029710
256.680291,2812.782580,-75077.358804,-3701.029710
256.682857,-27979.784608,-72319.415011,1924.535449
256.685424,-2960.823768,-74617.701505,1036.288319
256.687990,-18949.272115,-72779.072310,-148.041188
256.690556,-1184.329507,-75077.358804,-2516.700203
256.693123,-6217.729913,-74311.263306,-444.123565
256.695689,-6809.894666,-74617.701505,1924.535449
256.698256,-9030.512492,-74464.482406,-1628.453072
256.700822,-16728.654289,-73238.729609,444.123565
256.703388,-1332.370696,-74924.139704,592.164754
256.705955,-30348.443622,-73391.948708,-1628.453072
256.708521,13471.748144,-75996.673402,2072.576638
256.711088,-14211.954086,-74924.139704,-4145.153275
256.713654,9178.553681,-74770.920605,3404.947333
256.716220,-10066.800811,-72319.415011,-4145.153275
256.718787,-12583.501014,-74158.044206,888.247130
256.721355,7105.977043,-75843.454302,1924.535449
256.723923,-41007.409187,-71246.881314,-148.041188
256.726491,31384.731941,-75843.454302,-592.164754
256.729059,-41599.573940,-71093.662214,-3849.070898
256.731627,-10955.047942,-72779.072310,148.041188
256.734195,18801.230927,-74158.044206,-4885.359217
256.736763,-58772.351795,-71400.100414,-3108.864956
256.739331,6365.771101,-76609.549800,740.205942
256.741899,-34345.555709,-72932.291410,-1332.370696
256.744467,2516.700203,-74158.044206,-3997.112087
256.747035,-11991.336260,-74158.044206,-3552.988522
256.749603,-22650.301825,-71706.538613,1036.288319
256.752171,6661.853478,-74617.701505,-4145.153275
256.754739,-24574.837274,-73391.948708,3256.906145
256.757307,3404.947333,-74770.920605,-1036.288319
256.759875,-17912.983796,-73698.386908,-1184.329507
256.762443,-1332.370696,-75383.797003,2072.576638
256.765011,-10214.842000,-74464.482406,-2220.617826
256.767579,-14804.118840,-74464.482406,-3256.906145
256.770147,13619.789333,-73545.167808,-592.164754
256.772715,5625.565159,-74311.263306,2664.741391
256.775283,11843.295072,-75690.235202,2960.823768
256.777851,-1480.411884,-76609.549800,-6661.853478
256.780419,2664.741391,-75383.797003,-2812.782580
256.782987,-7550.100608,-72472.634111,592.164754
256.785555,3108.864956,-73545.167808,444.123565
256.788123,6365.771101,-74617.701505,-888.247130
256.790691,2812.782580,-75996.673402,-592.164754
256.793259,15396.283594,-74770.920605,-888.247130
256.795827,1332.370696,-74617.701505,-3404.947333
256.798395,6069.688724,-74311.263306,-5033.400406
256.800963,-8142.265362,-75996.673402,6957.935855
256.803531,-2072.576638,-73545.167808,-4737.318029
256.806099,27239.578666,-78448.178995,5477.523971
256.808667,-61881.216751,-73851.606007,-148.041188
256.811235,94450.278199,-79214.274493,-0.000000
256.813803,-23538.548956,-74770.920605,1036.288319
256.816371,-6513.812290,-73085.510509,-3256.906145
256.818939,68691.111418,-79367.493593,5033.400406
256.821508,-59660.598925,-72012.976812,-296.082377
256.824078,82014.818374,-76149.892501,-8438.347739
256.826648,-48557.509795,-74924.139704,7550.100608
256.829217,27683.702231,-76609.549800,-5329.482782
256.831787,24426.796086,-75230.577904,-0.000000
256.834356,-28127.825796,-71093.662214,1036.288319
256.836926,36714.214723,-76609.549800,-6513.812290
256.839495,-31976.896694,-72932.291410,2664.741391
256.842065,24278.754898,-75383.797003,-7402.059420
256.844634,-11547.212695,-74924.139704,3404.947333
256.847204,740.205942,-74924.139704,-1184.329507
256.849773,5773.606348,-75230.577904,-1480.411884
256.852343,-4145.153275,-73391.948708,-2220.617826
256.854912,-15100.201217,-73851.606007,2812.782580
256.857482,-21910.095883,-72932.291410,-2812.782580
256.860052,148.041188,-74617.701505,3849.070898
256.862621,-24278.754898,-74464.482406,-5033.400406
256.865191,1036.288319,-74770.920605,592.164754
256.867760,-13323.706956,-74004.825107,-1332.370696
256.870330,-18357.107362,-72779.072310,592.164754
256.872899,3404.947333,-74617.701505,-740.205942
256.875469,-23834.631332,-74004.825107,-888.247130
256.878038,-3701.029710,-73545.167808,-1036.288319
256.880608,444.123565,-74464.482406,-2664.741391
256.883177,8734.430116,-74464.482406,-888.247130
256.885747,-21317.931130,-74770.920605,-2072.576638
256.888316,-4145.153275,-74158.044206,3701.029710
256.890886,-36566.173535,-70480.785816,-5477.523971
256.893456,-1480.411884,-74770.920605,-3404.947333
256.896025,15544.324782,-77528.864398,2220.617826
256.898595,-72244.099939,-68948.594820,-2072.576638
256.901164,41895.656317,-76303.111601,-1480.411884
256.903734,-13767.830521,-75077.358804,-3849.070898
256.906303,-33901.432144,-72932.291410,3552.988522
256.908873,38638.750172,-71246.881314,-12287.418637
256.911442,-66470.493592,-72779.072310,4293.194464
256.914012,12879.583391,-77835.302597,-592.164754
256.916581,-24426.796086,-73851.606007,-740.205942
256.919151,-9030.512492,-74464.482406,-1184.329507
256.921720,-6661.853478,-75077.358804,-740.205942
256.924291,-21465.972318,-71246.881314,740.205942
256.926862,1924.535449,-74004.825107,-3256.906145
256.929432,-18061.024985,-74617.701505,3404.947333
256.932003,-6809.894666,-73851.606007,-888.247130
256.934574,-740.205942,-75537.016103,-2368.659014
256.937144,-13175.665768,-74004.825107,-1628.453072
256.939715,1332.370696,-75537.016103,-3108.864956
256.942286,4589.276840,-72319.415011,740.205942
256.944856,5477.523971,-74924.139704,2516.700203
256.947427,1332.370696,-77222.426198,-2072.576638
256.949998,592.164754,-76456.330700,-2960.823768
256.952568,-0.000000,-73545.167808,-2368.659014
256.955139,-888.247130,-73391.948708,3701.029710
256.957710,3997.112087,-75077.358804,-1480.411884
256.960280,5773.606348,-75383.797003,-148.041188
256.962851,7254.018232,-75537.016103,-1184.329507
256.965422,-16728.654289,-75230.577904,296.082377
256.967992,-9474.636058,-76609.549800,3256.906145
256.970563,4885.359217,-73698.386908,-8438.347739
256.973134,-15840.407159,-75537.016103,7994.224174
256.975704,-25315.043216,-68488.937521,-11399.171507
256.978275,32717.102636,-78448.178995,444.123565
256.980846,-13619.789333,-74617.701505,-3404.947333
256.983416,10658.965565,-76149.892501,-2072.576638
256.985987,21317.931130,-75690.235202,2220.617826
256.988558,-27979.784608,-72779.072310,2812.782580
256.991128,45004.521274,-75230.577904,-12435.459826
256.993699,-18949.272115,-76456.330700,10658.965565
256.996270,45448.644839,-76915.987999,-10362.883188
256.998840,-12435.459826,-75383.797003,2072.576638
257.001411,6809.894666,-72932.291410,-5181.441594
257.003982,12731.542202,-74924.139704,-5773.606348
257.006552,-9326.594869,-72779.072310,4145.153275
257.009123,19245.354492,-74617.701505,-7254.018232
257.011694,-15692.365970,-73698.386908,444.123565
257.014264,15840.407159,-75230.577904,296.082377
257.016835,-6513.812290,-74617.701505,-3256.906145
257.019406,2368.659014,-74770.920605,-148.041188
257.021976,592.164754,-74617.701505,-4441.235652
257.024547,-29460.196492,-70940.443115,2960.823768
257.027118,-5329.482782,-75230.577904,296.082377
257.029690,-20873.807564,-73698.386908,-3849.070898
257.032261,1184.329507,-75077.358804,-2220.617826
257.034832,-15840.407159,-73698.386908,-1776.494261
257.037404,-2368.659014,-74464.482406,2368.659014
257.039975,-16876.695478,-73698.386908,-3404.947333
257.042546,-14656.077652,-73085.510509,-1184.329507
257.045118,1184.329507,-74770.920605,-0.000000
257.047689,-32865.143825,-74464.482406,148.041188
257.050260,-18357.107362,-77222.426198,1924.535449
257.052832,-4737.318029,-73391.948708,-3997.112087
257.055403,-10658.965565,-75537.016103,4885.359217
257.057974,-3108.864956,-74158.044206,-2812.782580
257.060546,-30792.567187,-73085.510509,3849.070898
257.063117,-20725.766376,-74311.263306,-0.000000
257.065688,23390.507767,-76915.987999,-1924.535449
257.068260,-35825.967593,-73238.729609,2812.782580
257.070831,-22650.301825,-72319.415011,-4737.318029
257.073402,-13175.665768,-76915.987999,2072.576638
257.075974,-37010.297100,-71093.662214,-5329.482782
257.078545,-2072.576638,-75843.454302,3552.988522
257.081116,-23686.590144,-73851.606007,1628.453072
257.083688,5773.606348,-74924.139704,-6661.853478
257.086259,-14656.077652,-75077.358804,1184.329507
257.088830,-13323.706956,-73238.729609,-444.123565
257.091402,-6365.771101,-74770.920605,-740.205942
257.093973,-20133.601622,-74464.482406,3552.988522
257.096544,2220.617826,-74464.482406,-2960.823768
257.099116,592.164754,-75077.358804,2072.576638
257.101687,-18653.189738,-74617.701505,2072.576638
257.104258,1924.535449,-75383.797003,-5773.606348
257.106830,-2368.659014,-72932.291410,2516.700203
257.109401,17172.777854,-75230.577904,888.247130
257.111972,-888.247130,-74464.482406,2664.741391
257.114544,8142.265362,-77528.864398,-3108.864956
257.117115,-5625.565159,-76609.549800,-2220.617826
257.119686,-6957.935855,-74004.825107,4737.318029
257.122258,1776.494261,-73238.729609,-3404.947333
257.124829,2812.782580,-74464.482406,3552.988522
257.127400,12879.583391,-75843.454302,-2812.782580
257.129908,-4589.276840,-75383.797003,-1924.535449
257.132415,-10362.883188,-76149.892501,-1332.370696
257.134923,-2220.617826,-74464.482406,-2664.741391
257.137430,-1184.329507,-72779.072310,-4441.235652
257.139938,25315.043216,-75996.673402,2220.617826
257.142445,-43672.150578,-71706.538613,-1332.370696
257.144953,38638.750172,-77835.302597,-592.164754
257.147460,-46632.974346,-72779.072310,-6809.894666
257.149968,50037.921679,-79827.150892,4589.276840
257.152475,-18801.230927,-73391.948708,1480.411884
257.154983,-5329.482782,-73085.510509,-4589.276840
257.157490,29164.114115,-73698.386908,-8290.306550
257.159998,-34493.596897,-75537.016103,5477.523971
257.162506,13027.624579,-75843.454302,-6661.853478
257.165013,-7105.977043,-77069.207099,2516.700203
257.167521,888.247130,-73391.948708,444.123565
257.170028,4293.194464,-74004.825107,-1628.453072
257.172536,-2220.617826,-73851.606007,-1332.370696
257.175043,15840.407159,-75537.016103,-148.041188
257.177551,-1628.453072,-74617.701505,-1184.329507
257.180058,8142.265362,-76609.549800,-740.205942
257.182566,-6957.935855,-74617.701505,-2960.823768
257.185073,-5477.523971,-73238.729609,-1184.329507
257.187581,-19837.519246,-72472.634111,3404.947333
257.190088,-9770.718434,-73391.948708,444.123565
257.192596,-11103.089130,-74770.920605,-1184.329507
257.195103,-7846.182985,-74311.263306,-740.205942
257.197611,-6365.771101,-74924.139704,-2516.700203
257.200118,-6069.688724,-73851.606007,-1184.329507
257.202626,-14508.036463,-74004.825107,1184.329507
257.205133,-12583.501014,-72779.072310,-2220.617826
257.207641,3404.947333,-75230.577904,1036.288319
257.210148,-9474.636058,-73391.948708,-4737.318029
257.212656,-10510.924376,-75690.235202,-1332.370696
257.215164,-15248.242405,-71246.881314,-6661.853478
257.217671,-30792.567187,-75077.358804,4293.194464
257.220179,14656.077652,-70327.566716,-8290.306550
257.222686,-8438.347739,-76915.987999,6069.688724
257.225194,-28423.908173,-70940.443115,-4737.318029
257.227701,7105.977043,-78448.178995,4737.318029
257.230225,-59808.640114,-73545.167808,1776.494261
257.232748,26943.496289,-75077.358804,-1628.453072
257.235272,-49445.756926,-73085.510509,-1332.370696
257.237795,-26647.413912,-72166.195912,-2960.823768
257.240319,1480.411884,-75537.016103,592.164754
257.242842,-33161.226202,-72012.976812,-1776.494261
257.245366,21465.972318,-75996.673402,-4885.359217
257.247889,-28275.866984,-73391.948708,3404.947333
257.250413,-9178.553681,-74311.263306,-740.205942
257.252936,-7254.018232,-74311.263306,1184.329507
257.255460,-28719.990550,-72779.072310,-1036.288319
257.257983,17024.736666,-74617.701505,-1776.494261
257.260507,-26055.249158,-74311.263306,1924.535449
257.263030,9030.512492,-76762.768900,-4589.276840
257.265554,-888.247130,-73085.510509,-0.000000
257.268077,14804.118840,-74004.825107,-0.000000
257.270601,6365.771101,-75537.016103,1480.411884
257.273124,444.123565,-77222.426198,-2812.782580
257.275648,5477.523971,-74617.701505,-4441.235652
257.278171,-7846.182985,-74158.044206,3108.864956
257.280695,6513.812290,-74004.825107,-2516.700203
257.283218,-3849.070898,-74770.920605,2368.659014
257.285742,-2368.659014,-74924.139704,-2516.700203
257.288265,-6365.771101,-74158.044206,-3997.112087
257.290789,5625.565159,-74770.920605,-2072.576638
257.293312,-10955.047942,-75690.235202,1480.411884
257.295836,-20429.683999,-74158.044206,-3256.906145
257.298359,35825.967593,-78141.740796,4293.194464
257.300883,-31680.814318,-73545.167808,2516.700203
257.303406,6217.729913,-73545.167808,-6217.729913
257.305930,59364.516548,-78294.959896,1628.453072
257.308453,-38046.585419,-72779.072310,-444.123565
257.310977,9326.594869,-75537.016103,-888.247130
257.313500,-4441.235652,-76915.987999,-296.082377
257.316024,-32865.143825,-74311.263306,2664.741391
257.318547,26055.249158,-77222.426198,-4145.153275
257.321071,-29016.072926,-72012.976812,-0.000000
257.323594,27683.702231,-77375.645298,-1184.329507
257.326118,-8586.388927,-73698.386908,-444.123565
257.328641,4441.235652,-74311.263306,-1776.494261
257.331119,4737.318029,-76456.330700,296.082377
257.333597,296.082377,-74158.044206,5625.565159
257.336074,14063.912898,-75690.235202,-6661.853478
257.338552,-15840.407159,-73698.386908,-1036.288319
257.341030,9178.553681,-75996.673402,-5033.400406
257.343507,-22502.260637,-72932.291410,2664.741391
257.345985,-12583.501014,-73391.948708,296.082377
257.348463,-2960.823768,-74617.701505,-2220.617826
257.350940,-15692.365970,-73391.948708,-592.164754
257.353418,2664.741391,-75383.797003,-2664.741391
257.355895,-14656.077652,-73238.729609,148.041188
257.358373,-9474.636058,-74158.044206,-2960.823768
257.360851,-13471.748144,-73851.606007,2220.617826
257.363328,-21169.889941,-74004.825107,2812.782580
257.365806,-16876.695478,-74770.920605,-2368.659014
257.368284,-592.164754,-76303.111601,2664.741391
257.370761,-25907.207970,-69867.909418,-9622.677246
257.373239,-19837.519246,-74311.263306,3701.029710
257.375717,39971.120868,-75077.358804,-1628.453072
257.378194,-63509.669824,-71706.538613,1776.494261
257.380672,-36566.173535,-72932.291410,-888.247130
257.383149,-7105.977043,-74770.920605,-3701.029710
257.385627,2664.741391,-75996.673402,2960.823768
257.388105,-37158.338288,-73238.729609,740.205942
257.390582,19245.354492,-72472.634111,-6957.935855
257.393060,-53294.827824,-74004.825107,6809.894666
257.395538,-3108.864956,-74464.482406,-4293.194464
257.398015,5329.482782,-73391.948708,-0.000000
257.400493,-17912.983796,-75077.358804,888.247130
257.402970,2812.782580,-75230.577904,-2220.617826
257.405448,-22502.260637,-73545.167808,3701.029710
257.407926,-4885.359217,-74158.044206,-5477.523971
257.410403,-12435.459826,-73698.386908,2960.823768
257.412881,-13175.665768,-75077.358804,-740.205942
257.415359,-740.205942,-74770.920605,-3701.029710
257.417836,8438.347739,-75230.577904,2812.782580
257.420314,8734.430116,-74158.044206,2072.576638
257.422792,4885.359217,-75230.577904,-592.164754
257.425269,1480.411884,-76915.987999,296.082377
257.427747,-2220.617826,-76303.111601,-3552.988522
257.430249,1332.370696,-73698.386908,-740.205942
257.432750,-2664.741391,-74158.044206,2072.576638
257.435252,6809.894666,-75383.797003,-1332.370696
257.437754,3997.112087,-75690.235202,444.123565
257.440256,15100.201217,-74617.701505,-2368.659014
257.442758,20429.683999,-74004.825107,-2516.700203
257.445259,9622.677246,-77988.521696,2960.823768
257.447761,32717.102636,-73851.606007,-6809.894666
257.450263,7254.018232,-76149.892501,5773.606348
257.452765,-20133.601622,-71400.100414,-5033.400406
257.455267,14804.118840,-72932.291410,-7254.018232
257.457768,10066.800811,-77222.426198,740.205942
257.460270,11695.253884,-76303.111601,1332.370696
257.462772,-4885.359217,-71859.757712,-3552.988522
257.465274,17320.819043,-76456.330700,5773.606348
257.467776,9474.636058,-73238.729609,-5625.565159
257.470278,17320.819043,-74770.920605,-888.247130
257.472779,5181.441594,-76762.768900,2072.576638
257.475281,-3849.070898,-74158.044206,-2664.741391
257.477783,6957.935855,-74924.139704,2072.576638
257.480285,-6809.894666,-73391.948708,-3701.029710
257.482787,15100.201217,-75230.577904,444.123565
257.485288,-12139.377449,-74004.825107,-1332.370696
257.487790,14656.077652,-76303.111601,-2812.782580
257.490292,740.205942,-74770.920605,-2368.659014
257.492794,-23834.631332,-72166.195912,1184.329507
257.495296,-8586.388927,-72625.853210,-0.000000
257.497797,-12435.459826,-73391.948708,1184.329507
257.500299,-5329.482782,-74617.701505,-5329.482782
257.502801,-6661.853478,-74004.825107,1184.329507
257.505303,-11251.130318,-74464.482406,-3552.988522
257.507805,-5477.523971,-73545.167808,-740.205942
257.510325,-2960.823768,-74158.044206,592.164754
257.512845,-24870.919651,-73698.386908,-740.205942
257.515366,13027.624579,-74158.044206,-1776.494261
257.517886,-6661.853478,-74464.482406,-3404.947333
257.520406,10214.842000,-77682.083497,2072.576638
257.522927,-15396.283594,-72779.072310,-5329.482782
257.525447,-26647.413912,-73851.606007,2960.823768
257.527967,8438.347739,-71859.757712,-1628.453072
257.530488,36862.255912,-76149.892501,-9030.512492
257.533008,-72540.182316,-70634.004916,5921.647536
257.535528,43228.027013,-75230.577904,2072.576638
257.538049,-50334.004056,-73545.167808,1036.288319
257.540569,17320.819043,-73391.948708,-2516.700203
257.543089,1628.453072,-73851.606007,-1924.535449
257.545610,-34345.555709,-72779.072310,-2072.576638
257.548130,18357.107362,-75077.358804,740.205942
257.550651,-27535.661042,-72472.634111,-444.123565
257.553171,-148.041188,-74770.920605,-888.247130
257.555691,-11843.295072,-73545.167808,-740.205942
257.558212,-20133.601622,-72625.853210,-2960.823768
257.560732,4441.235652,-75230.577904,2812.782580
257.563252,-26351.331535,-73238.729609,-148.041188
257.565773,5181.441594,-73851.606007,-2368.659014
257.568293,11695.253884,-74924.139704,1184.329507
257.570813,7402.059420,-73238.729609,2812.782580
257.573334,1036.288319,-74617.701505,296.082377
257.575854,-296.082377,-75537.016103,-3256.906145
257.578374,-888.247130,-76762.768900,-2072.576638
257.580895,-148.041188,-72932.291410,-2368.659014
257.583415,3997.112087,-74004.825107,2220.617826
257.585935,5921.647536,-76303.111601,1036.288319
257.588456,-6069.688724,-75383.797003,-1776.494261
257.590976,1776.494261,-75690.235202,1184.329507
257.593496,1036.288319,-75690.235202,1036.288319
257.596017,-740.205942,-72932.291410,-9770.718434
257.598537,-13915.871710,-75690.235202,5921.647536
257.601057,45892.768404,-74158.044206,-4737.318029
257.603578,-9918.759623,-73545.167808,-5181.441594
257.606098,18801.230927,-77682.083497,3701.029710
257.608619,-5773.606348,-73851.606007,-5921.647536
257.611155,-10807.006753,-74311.263306,740.205942
257.613691,42635.862259,-74311.263306,-6957.935855
257.616226,-14952.160028,-75843.454302,7550.100608
257.618762,38046.585419,-74158.044206,-8882.471304
257.621298,-17912.983796,-76456.330700,592.164754
257.623834,5033.400406,-74770.920605,-296.082377
257.626370,8586.388927,-74924.139704,-1480.411884
257.628906,-10955.047942,-73238.729609,-3256.906145
257.631442,24870.919651,-75537.016103,888.247130
257.633978,-17172.777854,-74004.825107,-1184.329507
257.636514,21910.095883,-76303.111601,-1924.535449
257.639050,-11547.212695,-74311.263306,-2960.823768
257.641586,-23390.507767,-72932.291410,2220.617826
257.644122,-13175.665768,-73085.510509,-1036.288319
257.646658,-12435.459826,-74617.701505,888.247130
257.649194,-8882.471304,-74924.139704,-1332.370696
257.651730,-13471.748144,-74311.263306,-740.205942
257.654266,2072.576638,-75383.797003,-3552.988522
257.656802,-11547.212695,-73851.606007,592.164754
257.659338,-13471.748144,-74158.044206,-0.000000
257.661874,-296.082377,-72472.634111,-4293.194464
257.664410,-1480.411884,-72779.072310,-592.164754
257.666946,-6661.853478,-73085.510509,-4589.276840
257.669482,-9178.553681,-78294.959896,7402.059420
257.672018,5773.606348,-74004.825107,-5477.523971
257.674554,-17616.901420,-75843.454302,4589.276840
257.677090,-13915.871710,-72166.195912,-1924.535449
257.679626,67210.699534,-77222.426198,740.205942
257.682162,-89861.001359,-71706.538613,-740.205942
257.684698,44856.480085,-75383.797003,-6957.935855
257.687234,-32569.061448,-73545.167808,5921.647536
257.689770,-43968.232955,-72472.634111,-8586.388927
257.692306,30348.443622,-75383.797003,2812.782580
257.694842,-43968.232955,-73238.729609,2516.700203
257.697378,8586.388927,-74924.139704,-6513.812290
257.699914,-18653.189738,-74464.482406,4737.318029
257.702450,-13915.871710,-72166.195912,-5773.606348
257.704986,1776.494261,-75537.016103,444.123565
257.707522,-39082.873738,-71706.538613,2516.700203
257.710058,15396.283594,-75537.016103,-6661.853478
257.712607,-22058.137072,-74770.920605,3256.906145
257.715155,3256.906145,-75690.235202,-6661.853478
257.717703,14656.077652,-73851.606007,592.164754
257.720252,-3849.070898,-73391.948708,1924.535449
257.722800,7105.977043,-76456.330700,-1480.411884
257.725349,-7105.977043,-76303.111601,-3404.947333
257.727897,5329.482782,-74464.482406,-1628.453072
257.730445,-8734.430116,-72166.195912,1184.329507
257.732994,5033.400406,-74311.263306,-1332.370696
257.735542,20281.642811,-75690.235202,-2072.576638
257.738091,-18209.066173,-74924.139704,-592.164754
257.740639,9326.594869,-75077.358804,-3849.070898
257.743188,-17172.777854,-74924.139704,4145.153275
257.745736,13471.748144,-75843.454302,-5921.647536
257.748284,15100.201217,-76609.549800,7254.018232
257.750833,-40563.285622,-72932.291410,2960.823768
257.753381,30348.443622,-75230.577904,-6513.812290
257.755930,-31088.649564,-74311.263306,-444.123565
257.758478,13027.624579,-74770.920605,-3997.112087
257.761027,30940.608376,-75537.016103,-2664.741391
257.763575,-15692.365970,-75537.016103,6513.812290
257.766123,53738.951389,-75230.577904,-10510.924376
257.768672,-16876.695478,-75996.673402,3552.988522
257.771220,24130.713709,-75843.454302,-6069.688724
257.773769,11695.253884,-76303.111601,-1036.288319
257.776317,-14952.160028,-72472.634111,-1036.288319
257.778865,26943.496289,-76456.330700,-888.247130
257.781414,-22058.137072,-73391.948708,-444.123565
257.783962,23982.672521,-76915.987999,-5921.647536
257.786511,-7254.018232,-74617.701505,-2220.617826
257.789059,-14359.995275,-73391.948708,1036.288319
257.791608,-19245.354492,-72319.415011,-740.205942
257.794156,-8290.306550,-74617.701505,4589.276840
257.796704,-8734.430116,-74770.920605,-6809.894666
257.799253,-6069.688724,-73698.386908,1184.329507
257.801801,-8290.306550,-74617.701505,-2664.741391
257.804350,-9918.759623,-73851.606007,-2960.823768
257.806898,-6957.935855,-74311.263306,3256.906145
257.809446,-27979.784608,-71400.100414,-3256.906145
257.811995,5033.400406,-73085.510509,3256.906145
257.814552,-23686.590144,-74158.044206,-3552.988522
257.817110,-6365.771101,-75690.235202,1036.288319
257.819667,-30348.443622,-72779.072310,-888.247130
257.822225,35677.926404,-75077.358804,-3997.112087
257.824782,-76833.376780,-73238.729609,5033.400406
257.827340,44856.480085,-74464.482406,-14063.912898
257.829898,-20725.766376,-76609.549800,5329.482782
257.832455,-83791.312634,-71093.662214,-444.123565
257.835013,37602.461854,-76303.111601,-1924.535449
257.837570,-29608.237680,-73085.510509,6957.935855
257.840128,-1184.329507,-73698.386908,-10807.006753
257.842685,1036.288319,-73545.167808,3404.947333
257.845243,-23390.507767,-72166.195912,-8290.306550
257.847800,10658.965565,-74617.701505,2368.659014
257.850358,-24130.713709,-73391.948708,1924.535449
257.852915,-12879.583391,-73391.948708,-2812.782580
257.855473,1924.535449,-74617.701505,1036.288319
257.858030,-18505.148550,-75077.358804,-3108.864956
257.860588,-740.205942,-74924.139704,-2368.659014
257.863145,9770.718434,-74464.482406,148.041188
257.865703,11843.295072,-74158.044206,2220.617826
257.868260,-6069.688724,-74617.701505,-1628.453072
257.870818,-0.000000,-76303.111601,-3997.112087
257.873375,3552.988522,-75077.358804,-1332.370696
257.875933,-8142.265362,-72779.072310,148.041188
257.878490,10510.924376,-73698.386908,-2072.576638
257.881048,5329.482782,-75996.673402,592.164754
257.883605,12583.501014,-74158.044206,-2960.823768
257.886163,19097.313304,-74004.825107,-2368.659014
257.888721,-16728.654289,-72012.976812,-5921.647536
257.891278,-8290.306550,-76609.549800,2072.576638
257.893836,42635.862259,-74924.139704,-1480.411884
257.896393,-28127.825796,-74158.044206,5773.606348
257.898951,29904.320057,-73391.948708,-8290.306550
257.901508,-40267.203245,-74617.701505,1184.329507
257.904066,23242.466579,-74004.825107,-5181.441594
257.906623,43228.027013,-75537.016103,-1184.329507
257.909181,-51074.209998,-74158.044206,10362.883188
257.911738,22058.137072,-76303.111601,-5477.523971
257.914296,-19541.436869,-74004.825107,-1036.288319
257.916860,6217.729913,-74617.701505,-740.205942
257.919425,-296.082377,-76915.987999,148.041188
257.921989,-5625.565159,-73391.948708,-888.247130
257.924554,17616.901420,-76609.549800,-740.205942
257.927118,-592.164754,-74770.920605,-3404.947333
257.929683,1628.453072,-75690.235202,592.164754
257.932248,-2664.741391,-74770.920605,-7550.100608
257.934812,-23982.672521,-71859.757712,6217.729913
257.937377,-7698.141797,-74158.044206,-3108.864956
257.939941,-5625.565159,-74924.139704,1036.288319
257.942506,-10510.924376,-75077.358804,-1924.535449
257.945070,-10658.965565,-74004.825107,-3108.864956
257.947635,-3108.864956,-74004.825107,-888.247130
257.950199,-15840.407159,-73545.167808,-2812.782580
257.952764,1776.494261,-74464.482406,1036.288319
257.955328,-8438.347739,-72779.072310,-2960.823768
257.957893,2220.617826,-73545.167808,-1332.370696
257.960457,-19689.478057,-76915.987999,3404.947333
257.963022,5329.482782,-74770.920605,-7846.182985
257.965587,48853.592172,-73238.729609,-2220.617826
257.968151,-102000.378808,-70787.224015,592.164754
257.970716,103480.790692,-77682.083497,740.205942
257.973280,-112511.303184,-72779.072310,7698.141797
257.975845,35529.885216,-74311.263306,-13175.665768
257.978409,-8290.306550,-73698.386908,6513.812290
257.980974,-36418.132346,-73085.510509,-10807.006753
257.983538,26943.496289,-74311.263306,-9326.594869
257.986103,-40711.326810,-74158.044206,7402.059420
257.988667,3404.947333,-73851.606007,-10955.047942
257.991232,-12435.459826,-74617.701505,6957.935855
257.993796,-19837.519246,-72625.853210,-3552.988522
257.996361,-2664.741391,-73698.386908,-2072.576638
257.998926,-18653.189738,-73085.510509,740.205942
258.001490,-8290.306550,-75690.235202,-888.247130
258.004055,-3849.070898,-74770.920605,-5477.523971
258.006619,18505.148550,-74924.139704,4589.276840
258.009184,5921.647536,-74311.263306,-2664.741391
258.011748,-740.205942,-75230.577904,1776.494261
258.014313,7254.018232,-77069.207099,-3701.029710
258.016877,-4293.194464,-74464.482406,-3552.988522
258.019448,2960.823768,-73085.510509,740.205942
258.022018,8438.347739,-74464.482406,-7254.018232
258.024588,888.247130,-75383.797003,4441.235652
258.027158,17468.860231,-75537.016103,-3701.029710
258.029728,-0.000000,-74311.263306,740.205942
258.032299,11251.130318,-73238.729609,-6069.688724
258.034869,-16728.654289,-72932.291410,-2960.823768
258.037439,27387.619854,-75996.673402,-888.247130
258.040009,24574.837274,-75996.673402,-3256.906145
258.042579,-3108.864956,-75383.797003,2220.617826
258.045150,24426.796086,-75690.235202,-4293.194464
258.047720,-35233.802839,-72625.853210,-2516.700203
258.050290,18653.189738,-77375.645298,1628.453072
258.052860,-23390.507767,-73698.386908,1184.329507
258.055430,19541.436869,-74617.701505,-2960.823768
258.058001,-1184.329507,-73698.386908,-888.247130
258.060571,-10658.965565,-74924.139704,296.082377
258.063141,6069.688724,-75537.016103,-2812.782580
258.065711,3849.070898,-74770.920605,1036.288319
258.068281,4293.194464,-75230.577904,888.247130
258.070852,6661.853478,-76149.892501,-2516.700203
258.073422,-3108.864956,-74464.482406,-3552.988522
258.075992,-16876.695478,-73238.729609,740.205942
258.078562,-22206.178260,-72625.853210,1924.535449
258.081132,-9030.512492,-75077.358804,3552.988522
258.083703,-12287.418637,-74464.482406,-5921.647536
258.086273,-8438.347739,-74464.482406,148.041188
258.088843,-1480.411884,-74311.263306,-4293.194464
258.091413,-6809.894666,-73851.606007,-1628.453072
258.093983,-11399.171507,-74158.044206,1184.329507
258.096554,-20577.725188,-73085.510509,-148.041188
258.099124,-5033.400406,-72932.291410,-2220.617826
258.101694,-16728.654289,-76149.892501,296.082377
258.104264,-888.247130,-74158.044206,-5921.647536
258.106834,29164.114115,-78907.836294,6957.935855
258.109405,-67506.781910,-70327.566716,-2664.741391
258.111975,9770.718434,-74004.825107,-5625.565159
258.114545,-30644.525999,-73545.167808,3256.906145
258.117115,32569.061448,-74311.263306,-4589.276840
258.119685,-31384.731941,-74311.263306,3849.070898
258.122259,16580.613101,-75690.235202,-4589.276840
258.124832,-3404.947333,-73238.729609,-2072.576638
258.127405,-12731.542202,-74311.263306,-888.247130
258.129978,-2812.782580,-73391.948708,-1924.535449
258.132551,-15100.201217,-74004.825107,740.205942
258.135125,-1184.329507,-74770.920605,-296.082377
258.137698,-22798.343014,-73698.386908,3108.864956
258.140271,-8290.306550,-73391.948708,-6365.771101
258.142844,-6957.935855,-74617.701505,2220.617826
258.145418,-7402.059420,-73085.510509,-6513.812290
258.147991,17024.736666,-74617.701505,4145.153275
258.150564,6957.935855,-74770.920605,-888.247130
258.153137,2664.741391,-75537.016103,888.247130
258.155710,-5181.441594,-75537.016103,-2516.700203
258.158284,1628.453072,-74924.139704,-2516.700203
258.160857,-5033.400406,-74158.044206,3404.947333
258.163430,8438.347739,-73391.948708,-4589.276840
258.166003,-2812.782580,-75230.577904,2960.823768
258.168576,-14211.954086,-75383.797003,-888.247130
258.171150,5033.400406,-74924.139704,-148.041188
258.173723,12731.542202,-74004.825107,1776.494261
258.176296,30792.567187,-78601.398095,3997.112087
258.178869,-26499.372724,-73238.729609,3108.864956
258.181443,7698.141797,-73851.606007,-5181.441594
258.184016,21910.095883,-77069.207099,3108.864956
258.186589,-14656.077652,-76762.768900,1924.535449
258.189162,17764.942608,-73238.729609,-6069.688724
258.191735,26351.331535,-74770.920605,1776.494261
258.194309,-3997.112087,-75383.797003,2368.659014
258.196882,20577.725188,-74770.920605,-3997.112087
258.199455,-14508.036463,-73085.510509,-148.041188
258.202028,13027.624579,-75077.358804,-5033.400406
258.204601,5477.523971,-75996.673402,3404.947333
258.207175,4737.318029,-74004.825107,-1332.370696
258.209748,17912.983796,-75537.016103,-3849.070898
258.212321,-15840.407159,-74617.701505,740.205942
258.214894,2812.782580,-74464.482406,-4145.153275
258.217467,-34641.638086,-71706.538613,5033.400406
258.220041,2072.576638,-74617.701505,1480.411884
258.222614,-20429.683999,-73698.386908,-4293.194464
258.225189,-2516.700203,-75077.358804,-296.082377
258.227765,-8142.265362,-74311.263306,-3256.906145
258.230340,-13619.789333,-74158.044206,1332.370696
258.232916,-7698.141797,-74311.263306,-1924.535449
258.235491,-11695.253884,-74004.825107,2812.782580
258.238067,444.123565,-73238.729609,-3849.070898
258.240643,-740.205942,-75537.016103,3552.988522
258.243218,-6365.771101,-73085.510509,-9326.594869
258.245794,33161.226202,-79367.493593,5477.523971
258.248369,-45152.562462,-70174.347617,-2220.617826
258.250945,-70911.729244,-68795.375720,-7105.977043
258.253520,62473.381505,-77375.645298,2072.576638
258.256096,-61289.051998,-72779.072310,5921.647536
258.258671,-6957.935855,-74770.920605,-5329.482782
258.261247,-12287.418637,-73238.729609,5625.565159
258.263822,-46929.056723,-73851.606007,-2368.659014
258.266398,10510.924376,-72012.976812,-2812.782580
258.268973,-40119.162056,-73238.729609,5625.565159
258.271549,-296.082377,-74311.263306,-7105.977043
258.274124,-6513.812290,-75843.454302,3108.864956
258.276700,-35825.967593,-72779.072310,3256.906145
258.279275,8438.347739,-75383.797003,-4441.235652
258.281851,-24426.796086,-75230.577904,3404.947333
258.284426,1332.370696,-74464.482406,-9030.512492
258.287002,13915.871710,-73238.729609,6069.688724
258.289577,-1184.329507,-75230.577904,1924.535449
258.292153,4885.359217,-76762.768900,-3849.070898
258.294728,-5033.400406,-75383.797003,-1480.411884
258.297304,-444.123565,-74464.482406,-3108.864956
258.299879,-148.041188,-73698.386908,4441.235652
258.302455,5033.400406,-73698.386908,-3849.070898
258.305030,7550.100608,-74311.263306,888.247130
258.307606,10362.883188,-77069.207099,2664.741391
258.310181,7846.182985,-74004.825107,-4145.153275
258.312757,-7105.977043,-75383.797003,4441.235652
258.315332,-7994.224174,-72166.195912,-9030.512492
258.317908,22354.219448,-75537.016103,2368.659014
258.320483,-26499.372724,-72472.634111,-1480.411884
258.323059,16580.613101,-75843.454302,-2368.659014
258.325634,34345.555709,-77069.207099,-2368.659014
258.328212,-21317.931130,-70634.004916,-7846.182985
258.330790,21021.848753,-76915.987999,-1036.288319
258.333368,-15248.242405,-73545.167808,-148.041188
258.335945,-444.123565,-75690.235202,1776.494261
258.338523,9326.594869,-74617.701505,-2368.659014
258.341101,-12287.418637,-74004.825107,-296.082377
258.343678,28423.908173,-76149.892501,-2960.823768
258.346256,-16136.489536,-74004.825107,2516.700203
258.348834,4441.235652,-75383.797003,-1184.329507
258.351411,148.041188,-75230.577904,-4885.359217
258.353989,-29756.278868,-70940.443115,3849.070898
258.356567,-5921.647536,-74158.044206,-3552.988522
258.359145,-12879.583391,-74464.482406,3256.906145
258.361722,-2960.823768,-75537.016103,-4293.194464
258.364300,-12731.542202,-74004.825107,-444.123565
258.366878,-13767.830521,-73698.386908,148.041188
258.369455,592.164754,-74924.139704,-1480.411884
258.372033,-28127.825796,-72319.415011,3256.906145
258.374611,-6365.771101,-73391.948708,-2072.576638
258.377188,-9178.553681,-75383.797003,1628.453072
258.379766,-10955.047942,-72625.853210,-11103.089130
258.382344,21614.013506,-77528.864398,888.247130
258.384922,-8142.265362,-73085.510509,3701.029710
258.387499,-35529.885216,-71706.538613,-148.041188
258.390077,30792.567187,-75690.235202,-1628.453072
258.392655,-47669.262665,-73545.167808,3108.864956
258.395232,20873.807564,-74004.825107,-11695.253884
258.397810,-7846.182985,-73851.606007,6069.688724
258.400388,-15692.365970,-72319.415011,-8290.306550
258.402965,7698.141797,-75537.016103,2220.617826
258.405543,-30792.567187,-73391.948708,3849.070898
258.408121,7105.977043,-74158.044206,-4737.318029
258.410698,-21021.848753,-72932.291410,-296.082377
258.413276,-13915.871710,-72166.195912,-1776.494261
258.415854,-3701.029710,-74770.920605,-3404.947333
258.418432,-11251.130318,-74311.263306,-2960.823768
258.421009,4885.359217,-74617.701505,-3552.988522
258.423587,13323.706956,-72932.291410,3552.988522
258.426165,4145.153275,-75690.235202,1332.370696
258.428742,5625.565159,-76303.111601,-3256.906145
258.431321,-6513.812290,-74924.139704,-3552.988522
258.433900,5181.441594,-74158.044206,-444.123565
258.436479,-6069.688724,-72779.072310,2368.659014
258.439058,19097.313304,-75843.454302,-4145.153275
258.441637,7402.059420,-75077.358804,1184.329507
258.444216,2664.741391,-77069.207099,2812.782580
258.446795,-8882.471304,-71246.881314,-9326.594869
258.449374,20873.807564,-77222.426198,6217.729913
258.451954,16728.654289,-73698.386908,-8142.265362
258.454533,-6957.935855,-73085.510509,8142.265362
258.457112,7550.100608,-73698.386908,-4293.194464
258.459691,-11399.171507,-73391.948708,-6365.771101
258.462270,20873.807564,-75230.577904,-4589.276840
258.464849,-4441.235652,-76456.330700,1776.494261
258.467428,22354.219448,-72625.853210,-1924.535449
258.470007,11103.089130,-76609.549800,-740.205942
258.472586,8882.471304,-73391.948708,-2516.700203
258.475165,-1480.411884,-75690.235202,-2368.659014
258.477744,10955.047942,-76303.111601,2072.576638
258.480323,1036.288319,-76303.111601,444.123565
258.482902,3108.864956,-75230.577904,-3552.988522
258.485481,8586.388927,-74617.701505,-0.000000
258.488060,-24722.878463,-72166.195912,-296.082377
258.490639,-12287.418637,-73698.386908,1480.411884
258.493218,-14804.118840,-73851.606007,296.082377
258.495797,-13619.789333,-74464.482406,-3404.947333
258.498376,-5773.606348,-74464.482406,-1036.288319
258.500955,-9178.553681,-73698.386908,-1184.329507
258.503534,-2220.617826,-73698.386908,-1036.288319
258.506113,-26943.496289,-72166.195912,592.164754
258.508692,-14211.954086,-74004.825107,888.247130
258.511271,-21910.095883,-74464.482406,1628.453072
258.513850,-19097.313304,-70634.004916,-8586.388927
258.516429,-13619.789333,-75230.577904,740.205942
258.519008,9178.553681,-75230.577904,-740.205942
258.521587,-20429.683999,-73238.729609,3552.988522
258.524167,-27091.537477,-71859.757712,-3849.070898
258.526746,14804.118840,-74158.044206,-2812.782580
258.529325,-34789.679274,-75843.454302,5033.400406
258.531904,-21762.054695,-74004.825107,-6069.688724
258.534483,296.082377,-75077.358804,4589.276840
258.537062,-11695.253884,-73545.167808,-4293.194464
258.539642,3701.029710,-74924.139704,-1480.411884
258.542221,-28571.949361,-73391.948708,2072.576638
258.544800,-2960.823768,-73698.386908,-2960.823768
258.547379,-17172.777854,-73085.510509,3997.112087
258.549958,-13027.624579,-74158.044206,-2220.617826
258.552537,3108.864956,-75230.577904,-1036.288319
258.555116,-10955.047942,-74311.263306,-1036.288319
258.557696,24870.919651,-73851.606007,-296.082377
258.560275,-7846.182985,-74158.044206,2812.782580
258.562854,8438.347739,-76149.892501,-1924.535449
258.565433,-4293.194464,-74617.701505,-4441.235652
258.568012,1184.329507,-74311.263306,-1332.370696
258.570591,592.164754,-73391.948708,1184.329507
258.573171,13175.665768,-75077.358804,-2812.782580
258.575750,23834.631332,-74770.920605,-1924.535449
258.578329,7698.141797,-75537.016103,-1036.288319
258.580908,16728.654289,-74311.263306,-1628.453072
258.583487,-9178.553681,-74617.701505,1036.288319
258.586066,-13323.706956,-72319.415011,-7254.018232
258.588645,38934.832549,-77682.083497,3701.029710
258.591225,-68246.987852,-70940.443115,-1776.494261
258.593804,56847.816346,-75383.797003,-10214.842000
258.596383,25018.960840,-75077.358804,-6661.853478
258.598962,-37750.503042,-74004.825107,4737.318029
258.601541,39378.956114,-75843.454302,-7105.977043
258.604120,-37158.338288,-73085.510509,4737.318029
258.606700,30644.525999,-76915.987999,-6809.894666
258.609279,-22650.301825,-74004.825107,2812.782580
258.611858,16136.489536,-75383.797003,-888.247130
258.614437,5181.441594,-76915.987999,-2664.741391
258.617016,-20873.807564,-73545.167808,-444.123565
258.619595,21317.931130,-75843.454302,-7105.977043
258.622174,-46484.933158,-70327.566716,5329.482782
258.624753,444.123565,-74617.701505,-1628.453072
258.627332,-14211.954086,-73391.948708,-740.205942
258.629911,-12879.583391,-74924.139704,-2960.823768
258.632489,888.247130,-74158.044206,-2516.700203
258.635068,-18061.024985,-73085.510509,1628.453072
258.637647,4885.359217,-75077.358804,-2220.617826
258.640226,-32272.979071,-72319.415011,3552.988522
258.642805,-27091.537477,-74464.482406,-1776.494261
258.645384,-22946.384202,-72472.634111,-4885.359217
258.647963,-38638.750172,-75996.673402,3256.906145
258.650542,41303.491564,-75996.673402,-4293.194464
258.653121,-85419.765707,-71553.319513,1332.370696
258.655700,20873.807564,-73238.729609,-9918.759623
258.658279,21762.054695,-76762.768900,8734.430116
258.660858,-56255.651592,-70327.566716,-9030.512492
258.663437,54775.239708,-78448.178995,296.082377
258.666016,-44264.315332,-72472.634111,4737.318029
258.668594,18801.230927,-77222.426198,-6513.812290
258.671173,-22354.219448,-73545.167808,6661.853478
258.673752,-34789.679274,-71859.757712,-740.205942
258.676331,9326.594869,-74158.044206,-4293.194464
258.678910,-29904.320057,-72012.976812,4589.276840
258.681489,-7698.141797,-74158.044206,-7550.100608
258.684068,-7254.018232,-75077.358804,-1776.494261
258.686647,-4589.276840,-74311.263306,-2516.700203
258.689226,25907.207970,-73545.167808,1628.453072
258.691805,-5625.565159,-73851.606007,1036.288319
258.694384,6069.688724,-75537.016103,-3108.864956
258.696963,-5773.606348,-75996.673402,-3701.029710
258.699542,2812.782580,-74004.825107,-740.205942
258.702120,-1924.535449,-74004.825107,444.123565
258.704699,7550.100608,-75537.016103,-2072.576638
258.707278,17912.983796,-75383.797003,888.247130
258.709857,4885.359217,-76762.768900,1332.370696
258.712436,-5477.523971,-74004.825107,-1776.494261
258.715015,13027.624579,-75383.797003,444.123565
258.717594,4737.318029,-75230.577904,-2220.617826
258.720173,-26351.331535,-72319.415011,2072.576638
258.722752,-2516.700203,-73545.167808,-5921.647536
258.725331,21317.931130,-76456.330700,1924.535449
258.727911,740.205942,-73085.510509,-2368.659014
258.730490,12583.501014,-76149.892501,-2812.782580
258.733069,-7254.018232,-73391.948708,1776.494261
258.735648,8290.306550,-73391.948708,-3701.029710
258.738227,-6217.729913,-74004.825107,888.247130
258.740807,18801.230927,-75383.797003,-1332.370696
258.743386,-2368.659014,-75690.235202,-888.247130
258.745965,11991.336260,-76303.111601,-2960.823768
258.748544,888.247130,-74924.139704,-1480.411884
258.751123,-22798.343014,-71859.757712,2960.823768
258.753702,-21614.013506,-72625.853210,-1776.494261
258.756282,-9474.636058,-74464.482406,2812.782580
258.758861,-13471.748144,-75690.235202,-3256.906145
258.761440,-3701.029710,-74924.139704,-3256.906145
258.764019,-7994.224174,-74770.920605,-1480.411884
258.766598,-10066.800811,-74004.825107,-1036.288319
258.769177,-5773.606348,-72472.634111,1184.329507
258.771757,5181.441594,-72319.415011,-3701.029710
258.774336,-26795.455100,-72625.853210,-1036.288319
258.776915,-25611.125593,-75230.577904,-2220.617826
258.779494,-1776.494261,-75230.577904,-2664.741391
258.782073,4589.276840,-77069.207099,4885.359217
258.784652,-62473.381505,-71093.662214,-2664.741391
258.787232,54627.198520,-76609.549800,-592.164754
258.789811,19245.354492,-73391.948708,-888.247130
258.792390,-32717.102636,-72625.853210,-3256.906145
258.794969,22946.384202,-74770.920605,-4145.153275
258.797548,-50926.168810,-74158.044206,3108.864956
258.800127,19689.478057,-76456.330700,-592.164754
258.802707,-39378.956114,-73545.167808,5625.565159
258.805286,9770.718434,-74158.044206,-5477.523971
258.807865,2812.782580,-74158.044206,1184.329507
258.810444,-32717.102636,-72166.195912,-148.041188
258.813023,8734.430116,-76149.892501,-2368.659014
258.815603,-16728.654289,-74617.701505,-1036.288319
258.818182,26499.372724,-73238.729609,444.123565
258.820761,2072.576638,-74924.139704,740.205942
258.823339,4441.235652,-75230.577904,-1776.494261
258.825918,-2812.782580,-75537.016103,-2664.741391
258.828496,444.123565,-73698.386908,-888.247130
258.831075,-6513.812290,-73238.729609,3997.112087
258.833653,17764.942608,-74770.920605,-3849.070898
258.836232,-10362.883188,-75383.797003,740.205942
258.838810,-148.041188,-73698.386908,-5477.523971
258.841389,-5329.482782,-76456.330700,5625.565159
258.843967,-54331.116143,-70480.785816,-6513.812290
258.846546,67210.699534,-77375.645298,-740.205942
258.849124,-68691.111418,-71093.662214,-3108.864956
258.851703,58032.145853,-77375.645298,-2516.700203
258.854281,10214.842000,-74617.701505,-5477.523971
258.856860,1776.494261,-75996.673402,4145.153275
258.859438,42635.862259,-77069.207099,-5773.606348
258.862017,-36122.049970,-72166.195912,3997.112087
258.864595,34937.720462,-75690.235202,-4441.235652
258.867174,-13471.748144,-72779.072310,-1924.535449
258.869752,9622.677246,-74617.701505,296.082377
258.872331,12731.542202,-76456.330700,-4293.194464
258.874909,-6809.894666,-73545.167808,-1480.411884
258.877488,16284.530724,-75996.673402,-5033.400406
258.880066,-36714.214723,-71400.100414,2368.659014
258.882645,-7994.224174,-73238.729609,-1036.288319
258.885223,-9622.677246,-74464.482406,740.205942
258.887802,-13619.789333,-74770.920605,-4145.153275
258.890380,-1480.411884,-74924.139704,148.041188
258.892959,-10510.924376,-74770.920605,-3108.864956
258.895537,-7698.141797,-74464.482406,-296.082377
258.898116,-10362.883188,-73085.510509,-148.041188
258.900694,11251.130318,-72166.195912,-3404.947333
258.903273,-16136.489536,-74924.139704,5773.606348
258.905851,-12879.583391,-75537.016103,-3552.988522
258.908430,10214.842000,-75996.673402,2812.782580
258.911008,-36122.049970,-73085.510509,-592.164754
258.913587,-11991.336260,-71859.757712,-4589.276840
258.916165,-7698.141797,-73085.510509,3997.112087
258.918744,-24574.837274,-73851.606007,444.123565
258.921322,-14359.995275,-71706.538613,-4589.276840
258.923901,-2516.700203,-74617.701505,-0.000000
258.926438,-16580.613101,-73545.167808,-148.041188
258.928975,3552.988522,-74464.482406,-2960.823768
258.931512,-21910.095883,-74158.044206,1184.329507
258.934049,-10807.006753,-73698.386908,1776.494261
258.936586,-12879.583391,-73545.167808,2072.576638
258.939123,-14359.995275,-74464.482406,-2220.617826
258.941659,1776.494261,-74617.701505,-1924.535449
258.944196,11251.130318,-74617.701505,2664.741391
258.946733,13767.830521,-74004.825107,-1628.453072
258.949270,-740.205942,-75230.577904,2072.576638
258.951807,2812.782580,-76609.549800,-4293.194464
258.954344,-4441.235652,-73698.386908,-148.041188
258.956881,1924.535449,-73391.948708,-592.164754
258.959418,1036.288319,-72779.072310,-1036.288319
258.961955,-14359.995275,-75996.673402,3256.906145
258.964492,17616.901420,-76456.330700,-4589.276840
258.967029,13619.789333,-74004.825107,1628.453072
258.969566,592.164754,-74617.701505,-3256.906145
258.972103,-19985.560434,-73238.729609,-888.247130
258.974640,34049.473332,-76456.330700,740.205942
258.977176,-52998.745447,-71400.100414,-444.123565
258.979713,-19837.519246,-75230.577904,1184.329507
258.982250,17024.736666,-78294.959896,-2368.659014
258.984787,-17320.819043,-74158.044206,2368.659014
258.987324,26795.455100,-73698.386908,-4885.359217
258.989861,-14952.160028,-73545.167808,-148.041188
258.992398,19245.354492,-75690.235202,-2368.659014
258.994935,-3256.906145,-74617.701505,2072.576638
258.997472,5625.565159,-75537.016103,-2960.823768
259.000009,10362.883188,-75537.016103,-3997.112087
259.002546,-4589.276840,-74464.482406,-3849.070898
259.005083,-25167.002028,-72012.976812,2368.659014
259.007620,-20725.766376,-73391.948708,-740.205942
259.010157,-5773.606348,-74924.139704,2220.617826
259.012693,-13175.665768,-75230.577904,-3256.906145
259.015230,-6513.812290,-75077.358804,-740.205942
259.017767,-2812.782580,-75383.797003,148.041188
259.020304,-16432.571912,-74464.482406,-2072.576638
259.022841,-2664.741391,-72166.195912,-148.041188
259.025378,-2220.617826,-72625.853210,-3552.988522
259.027923,3997.112087,-76149.892501,5625.565159
259.030469,-26351.331535,-72932.291410,-6365.771101
259.033014,-19393.395680,-76456.330700,-0.000000
259.035559,14804.118840,-74158.044206,-3997.112087
259.038104,-47225.139100,-73545.167808,4145.153275
259.040650,22946.384202,-72779.072310,-4293.194464
259.043195,-44708.438897,-74770.920605,5921.647536
259.045740,20873.807564,-75383.797003,-6069.688724
259.048286,-17468.860231,-73698.386908,-296.082377
259.050831,-5329.482782,-74311.263306,-740.205942
259.053376,-9770.718434,-73085.510509,-0.000000
259.055921,-24130.713709,-73545.167808,296.082377
259.058467,-1332.370696,-74158.044206,1924.535449
259.061012,-23834.631332,-74464.482406,444.123565
259.063557,-444.123565,-74464.482406,-2960.823768
259.066102,-8438.347739,-75230.577904,-2516.700203
259.068648,22206.178260,-73698.386908,1776.494261
259.071193,2516.700203,-73698.386908,1184.329507
259.073738,-3256.906145,-75690.235202,-740.205942
259.076283,1924.535449,-75537.016103,-5033.400406
259.078829,-4293.194464,-73391.948708,148.041188
259.081374,-8734.430116,-72472.634111,888.247130
259.083919,24130.713709,-76149.892501,-1628.453072
259.086464,2516.700203,-75383.797003,1776.494261
259.089010,27683.702231,-76762.768900,-2220.617826
259.091555,9770.718434,-73698.386908,-296.082377
259.094100,-42783.903448,-74617.701505,4885.359217
259.096646,12731.542202,-73851.606007,-6069.688724
259.099191,17912.983796,-75383.797003,5921.647536
259.101736,-25907.207970,-72166.195912,-2516.700203
259.104281,34345.555709,-75690.235202,-5921.647536
259.106827,-17912.983796,-74617.701505,-592.164754
259.109372,-1036.288319,-74770.920605,-3552.988522
259.111917,21465.972318,-74311.263306,-1628.453072
259.114462,-16876.695478,-72625.853210,148.041188
259.117008,20429.683999,-74311.263306,-2516.700203
259.119553,2368.659014,-76915.987999,1776.494261
259.122098,7550.100608,-76149.892501,-5625.565159
259.124643,1184.329507,-75996.673402,-592.164754
259.127189,-27091.537477,-72319.415011,-2220.617826
259.129741,-10658.965565,-71706.538613,-2664.741391
259.132293,-15544.324782,-74158.044206,2368.659014
259.134846,-14656.077652,-73545.167808,-4145.153275
259.137398,-3256.906145,-75077.358804,-740.205942
259.139950,-12139.377449,-74158.044206,-4441.235652
259.142502,-10066.800811,-73698.386908,-1628.453072
259.145055,-5921.647536,-73698.386908,592.164754
259.147607,2960.823768,-71246.881314,-3997.112087
259.150159,-27683.702231,-70480.785816,-3701.029710
259.152712,7994.224174,-75537.016103,-2220.617826
259.155264,1332.370696,-75230.577904,2072.576638
259.157816,-30644.525999,-73391.948708,-3701.029710
259.160368,11547.212695,-75843.454302,2220.617826
259.162921,-56551.733969,-71553.319513,2664.741391
259.165473,24426.796086,-72472.634111,-8142.265362
259.168025,-35085.761651,-73851.606007,4589.276840
259.170578,-23686.590144,-72472.634111,-4885.359217
259.173130,11399.171507,-72779.072310,-1924.535449
259.175682,-27239.578666,-73545.167808,-1036.288319
259.178234,6217.729913,-74924.139704,-1628.453072
259.180787,-20281.642811,-73391.948708,4293.194464
259.183339,-16284.530724,-74464.482406,-4145.153275
259.185891,-5033.400406,-74464.482406,-1628.453072
259.188444,3849.070898,-74311.263306,-740.205942
259.190996,22798.343014,-75077.358804,296.082377
259.193548,-2812.782580,-74617.701505,1924.535449
259.196100,7550.100608,-77222.426198,-1776.494261
259.198653,-8142.265362,-74617.701505,-3997.112087
259.201205,444.123565,-74004.825107,-888.247130
259.203757,-3849.070898,-72932.291410,1332.370696
259.206310,4885.359217,-74924.139704,740.205942
259.208862,9474.636058,-75230.577904,-3108.864956
259.211414,-3701.029710,-77988.521696,5033.400406
259.213966,-25759.166782,-71246.881314,-6809.894666
259.216519,-444.123565,-75843.454302,1184.329507
259.219071,40563.285622,-77069.207099,-296.082377
259.221623,-37750.503042,-72166.195912,1628.453072
259.224176,26203.290347,-75383.797003,-5477.523971
259.226728,25611.125593,-78754.617194,2664.741391
259.229280,-6217.729913,-72932.291410,-4737.318029
259.231837,35233.802839,-75690.235202,-2664.741391
259.234394,-23390.507767,-72779.072310,1036.288319
259.236952,33753.390955,-76762.768900,-2072.576638
259.239509,-17616.901420,-75230.577904,1628.453072
259.242066,22946.384202,-76456.330700,-3997.112087
259.244623,6809.894666,-76915.987999,-2812.782580
259.247180,-12287.418637,-73391.948708,-2664.741391
259.249737,-19393.395680,-71859.757712,2664.741391
259.252295,-21317.931130,-72779.072310,-0.000000
259.254852,-7402.059420,-73545.167808,148.041188
259.257409,-11251.130318,-75690.235202,-3404.947333
259.259966,-9030.512492,-73391.948708,592.164754
259.262523,-1332.370696,-75996.673402,-1480.411884
259.265080,-2812.782580,-73698.386908,-3701.029710
259.267637,-16580.613101,-72012.976812,1776.494261
259.270195,-18357.107362,-73391.948708,-2516.700203
259.272752,-26499.372724,-73545.167808,-444.123565
259.275309,49001.633360,-78907.836294,444.123565
259.277866,-115028.003387,-70327.566716,-5477.523971
259.280423,97263.060779,-79214.274493,-3849.070898
259.282980,29904.320057,-75077.358804,5181.441594
259.285538,-94154.195822,-69408.252119,-1332.370696
259.288095,40711.326810,-76303.111601,444.123565
259.290652,-67210.699534,-75690.235202,8438.347739
259.293209,30496.484810,-75690.235202,-9622.677246
259.295766,-34197.514520,-72932.291410,3108.864956
259.298323,-6069.688724,-72932.291410,-8290.306550
259.300881,-2812.782580,-73698.386908,5033.400406
259.303438,-47077.097911,-73698.386908,7105.977043
259.305995,16876.695478,-75230.577904,-7846.182985
259.308552,-9178.553681,-75077.358804,3256.906145
259.311109,23982.672521,-74770.920605,-296.082377
259.313666,4589.276840,-74158.044206,-0.000000
259.316223,-3997.112087,-74617.701505,888.247130
259.318781,7550.100608,-76149.892501,-4145.153275
259.321338,-148.041188,-74158.044206,296.082377
259.323895,-4293.194464,-72932.291410,1776.494261
259.326452,3256.906145,-76762.768900,1480.411884
259.329009,-9770.718434,-74924.139704,-1480.411884
259.331566,8142.265362,-74924.139704,-5773.606348
259.334128,11103.089130,-75996.673402,1036.288319
259.336689,-31236.690752,-72625.853210,1480.411884
259.339250,-6957.935855,-74617.701505,-1332.370696
259.341812,-10066.800811,-73545.167808,-888.247130
259.344373,20725.766376,-76762.768900,2516.700203
259.346934,-4737.318029,-74004.825107,-4293.194464
259.349496,-10807.006753,-77222.426198,-592.164754
259.352057,5477.523971,-74617.701505,-1036.288319
259.354618,-17172.777854,-74004.825107,2220.617826
259.357180,17024.736666,-74464.482406,740.205942
259.359741,-4145.153275,-75230.577904,2812.782580
259.362302,16876.695478,-77682.083497,-3849.070898
259.364864,-740.205942,-75537.016103,-3256.906145
259.367425,-15988.448347,-74004.825107,-1628.453072
259.369986,-28423.908173,-72319.415011,2072.576638
259.372547,-13471.748144,-72166.195912,2960.823768
259.375109,-7698.141797,-73851.606007,-2368.659014
259.377670,-7994.224174,-74770.920605,-740.205942
259.380231,-1924.535449,-75996.673402,-1776.494261
259.382793,-15248.242405,-74158.044206,-3701.029710
259.385354,-296.082377,-73698.386908,-2516.700203
259.387915,-20281.642811,-72012.976812,592.164754
259.390477,-11103.089130,-74004.825107,3404.947333
259.393038,12139.377449,-75690.235202,1184.329507
259.395599,-20429.683999,-76149.892501,2072.576638
259.398161,-30052.361245,-73391.948708,-3997.112087
259.400722,53886.992578,-75843.454302,3701.029710
259.403283,-70467.605678,-72779.072310,4441.235652
259.405845,6513.812290,-74924.139704,-2072.576638
259.408406,-21317.931130,-74617.701505,3404.947333
259.410967,-21021.848753,-72319.415011,-3997.112087
259.413529,8734.430116,-74924.139704,-1480.411884
259.416090,-31976.896694,-73085.510509,740.205942
259.418651,-888.247130,-73698.386908,-1332.370696
259.421212,-14063.912898,-74311.263306,888.247130
259.423774,-13767.830521,-73391.948708,1184.329507
259.426335,-7402.059420,-74311.263306,-7550.100608
259.428896,12731.542202,-73391.948708,3108.864956
259.431458,17320.819043,-75690.235202,-2368.659014
259.434019,-1480.411884,-75230.577904,592.164754
259.436584,4441.235652,-76609.549800,-2960.823768
259.439148,-9918.759623,-74158.044206,-1332.370696
259.441713,1480.411884,-72166.195912,3552.988522
259.444278,6957.935855,-74158.044206,-1332.370696
259.446842,21465.972318,-75230.577904,-3701.029710
259.449407,-15544.324782,-75690.235202,592.164754
259.451972,6957.935855,-75843.454302,-592.164754
259.454536,53294.827824,-75383.797003,592.164754
259.457101,-10955.047942,-75230.577904,6957.935855
259.459666,3701.029710,-72625.853210,-3404.947333
259.462231,10510.924376,-76456.330700,3108.864956
259.464795,13915.871710,-72472.634111,-7698.141797
259.467360,-17172.777854,-77682.083497,148.041188
259.469925,10362.883188,-74770.920605,-1184.329507
259.472489,-13915.871710,-74924.139704,148.041188
259.475054,23390.507767,-75843.454302,-1184.329507
259.477619,-888.247130,-74617.701505,3404.947333
259.480183,9622.677246,-76149.892501,-5329.482782
259.482748,3552.988522,-76303.111601,-1776.494261
259.485313,-7105.977043,-75077.358804,-3256.906145
259.487877,-24130.713709,-71859.757712,2812.782580
259.490442,-15840.407159,-73238.729609,-148.041188
259.493007,-15396.283594,-73085.510509,-1480.411884
259.495571,-1332.370696,-74770.920605,-148.041188
259.498136,-8142.265362,-74617.701505,-2072.576638
259.500701,740.205942,-74770.920605,-1036.288319
259.503265,-25759.166782,-74311.263306,-2220.617826
259.505830,-33013.185013,-73391.948708,4293.194464
259.508395,-14508.036463,-71553.319513,-5477.523971
259.510959,-37158.338288,-74004.825107,3849.070898
259.513524,-1480.411884,-78141.740796,4885.359217
259.516089,34345.555709,-76915.987999,-2664.741391
259.518653,-89416.877794,-71400.100414,3108.864956
259.521218,64545.958142,-74158.044206,-7402.059420
259.523783,-61141.010809,-71093.662214,5033.400406
259.526347,-6513.812290,-72779.072310,-12731.542202
259.528912,-10955.047942,-75996.673402,4885.359217
259.531477,-44412.356520,-73085.510509,4737.318029
259.534041,33013.185013,-75843.454302,-8142.265362
259.536606,-49889.880491,-73545.167808,8586.388927
259.539174,4589.276840,-73698.386908,-7698.141797
259.541741,-18209.066173,-74158.044206,4293.194464
259.544308,-17024.736666,-73698.386908,-7698.141797
259.546876,39082.873738,-75996.673402,2812.782580
259.549443,888.247130,-75383.797003,-3997.112087
259.552011,12139.377449,-76762.768900,-1628.453072
259.554578,-3701.029710,-76303.111601,-1480.411884
259.557146,-9474.636058,-73851.606007,-0.000000
259.559713,11547.212695,-74158.044206,2664.741391
259.562280,-888.247130,-74770.920605,-1776.494261
259.564848,20429.683999,-76303.111601,-2220.617826
259.567415,9030.512492,-76915.987999,592.164754
259.569983,11103.089130,-75996.673402,2812.782580
259.572550,-444.123565,-72779.072310,-1184.329507
259.575118,-14063.912898,-72319.415011,-1184.329507
259.577685,-6809.894666,-73545.167808,-444.123565
259.580253,9918.759623,-76609.549800,4293.194464
259.582820,-592.164754,-73391.948708,-6957.935855
259.585387,-148.041188,-77682.083497,1776.494261
259.587955,-3256.906145,-75230.577904,148.041188
259.590522,5033.400406,-72012.976812,-4885.359217
259.593090,6365.771101,-74617.701505,1628.453072
259.595657,7402.059420,-75383.797003,592.164754
259.598225,10362.883188,-76915.987999,-1184.329507
259.600792,1628.453072,-76456.330700,-1628.453072
259.603359,-25463.084405,-73851.606007,-2516.700203
259.605927,-22650.301825,-72932.291410,888.247130
259.608494,-6957.935855,-73698.386908,3552.988522
259.611062,-17172.777854,-73238.729609,-2812.782580
259.613629,-0.000000,-75537.016103,-444.123565
259.616197,-12583.501014,-74617.701505,-3997.112087
259.618764,-6957.935855,-74464.482406,-2220.617826
259.621332,-21021.848753,-74464.482406,-444.123565
259.623901,-26203.290347,-70787.224015,-2072.576638
259.626470,5181.441594,-73391.948708,-1480.411884
259.629039,-36122.049970,-74464.482406,-3108.864956
259.631608,6809.894666,-74770.920605,-3552.988522
259.634177,-18209.066173,-74924.139704,-2960.823768
259.636746,-42339.779882,-71553.319513,-3404.947333
259.639314,23390.507767,-74770.920605,2812.782580
259.641883,-36862.255912,-73238.729609,-1184.329507
259.644452,24722.878463,-74464.482406,-3108.864956
259.647021,-18949.272115,-72779.072310,-3404.947333
259.649590,-9622.677246,-74770.920605,-3997.112087
259.652159,-6217.729913,-74158.044206,1184.329507
259.654728,-22650.301825,-72779.072310,-444.123565
259.657297,2960.823768,-74158.044206,-1332.370696
259.659865,-28423.908173,-73391.948708,-1184.329507
259.662434,32272.979071,-76149.892501,1036.288319
259.665003,6957.935855,-75230.577904,-3701.029710
259.667572,4145.153275,-76149.892501,444.123565
259.670141,5773.606348,-77069.207099,-6217.729913
259.672710,-14063.912898,-73085.510509,-0.000000
259.675279,8290.306550,-73851.606007,-0.000000
259.677848,-13027.624579,-72472.634111,592.164754
259.680417,10362.883188,-77069.207099,1332.370696
259.682985,7550.100608,-79061.055394,6957.935855
259.685554,-37898.544230,-71093.662214,-9030.512492
259.688123,14359.995275,-75843.454302,1184.329507
259.690692,7698.141797,-75537.016103,-296.082377
259.693261,11547.212695,-75996.673402,3256.906145
259.695830,-6069.688724,-71706.538613,-888.247130
259.698399,18653.189738,-78754.617194,2960.823768
259.700968,8290.306550,-73391.948708,-4293.194464
259.703536,-14656.077652,-74617.701505,-1480.411884
259.706105,16580.613101,-76149.892501,2812.782580
259.708674,-13027.624579,-73545.167808,592.164754
259.711243,15988.448347,-74464.482406,-3108.864956
259.713812,-740.205942,-74924.139704,-1184.329507
259.716381,4737.318029,-75077.358804,-6661.853478
259.718950,-23390.507767,-73085.510509,740.205942
259.721519,-24130.713709,-72472.634111,-2368.659014
259.724089,148.041188,-73698.386908,5181.441594
259.726659,-20577.725188,-73851.606007,-2812.782580
259.729229,-592.164754,-74464.482406,-1036.288319
259.731798,-9770.718434,-75690.235202,-3849.070898
259.734368,-13027.624579,-74004.825107,-3701.029710
259.736938,-14063.912898,-72779.072310,296.082377
259.739508,-39526.997303,-70480.785816,-3108.864956
259.742078,-29608.237680,-72319.415011,148.041188
259.744648,39230.914926,-75383.797003,-6957.935855
259.747218,-9030.512492,-78141.740796,5921.647536
259.749788,-64397.916954,-69561.471218,-12139.377449
259.752358,78609.871040,-78448.178995,9178.553681
259.754928,-92081.619185,-70174.347617,4737.318029
259.757498,56995.857534,-74311.263306,-12731.542202
259.760068,10362.883188,-75383.797003,4589.276840
259.762638,-43079.985824,-71553.319513,-1628.453072
259.765208,29016.072926,-76456.330700,-1628.453072
259.767778,-50926.168810,-72012.976812,3552.988522
259.770348,11251.130318,-75690.235202,-4737.318029
259.772918,-21021.848753,-73085.510509,1628.453072
259.775488,-3997.112087,-73391.948708,-8142.265362
259.778058,31976.896694,-75230.577904,4293.194464
259.780628,-7994.224174,-74311.263306,-1036.288319
259.783198,14508.036463,-76915.987999,-3701.029710
259.785768,-7994.224174,-75996.673402,-3552.988522
259.788338,-5329.482782,-72319.415011,148.041188
259.790908,10955.047942,-72932.291410,148.041188
259.793478,10066.800811,-74004.825107,-1480.411884
259.796048,17172.777854,-75383.797003,-5033.400406
259.798618,7550.100608,-76609.549800,-1924.535449
259.801188,-21762.054695,-73085.510509,-6217.729913
259.803758,24278.754898,-76915.987999,-3108.864956
259.806328,-4293.194464,-74924.139704,3552.988522
259.808898,-2812.782580,-73391.948708,1036.288319
259.811468,13027.624579,-74311.263306,-3997.112087
259.814038,-15248.242405,-75996.673402,1332.370696
259.816608,4589.276840,-76915.987999,-3997.112087
259.819177,2960.823768,-74158.044206,-1036.288319
259.821747,-4145.153275,-74617.701505,3256.906145
259.824317,14508.036463,-74464.482406,444.123565
259.826889,7254.018232,-76303.111601,592.164754
259.829460,12583.501014,-77222.426198,-5329.482782
259.832031,-22946.384202,-74617.701505,1036.288319
259.834602,-24870.919651,-72779.072310,-2072.576638
259.837173,-4885.359217,-73545.167808,2664.741391
259.839744,-29016.072926,-70940.443115,-1924.535449
259.842315,9474.636058,-74464.482406,-444.123565
259.844886,-22946.384202,-75230.577904,-2368.659014
259.847457,3849.070898,-75996.673402,-4589.276840
259.850028,-42191.738694,-74770.920605,1480.411884
259.852599,-14656.077652,-72012.976812,-1184.329507
259.855171,21021.848753,-74004.825107,-3701.029710
259.857742,-21021.848753,-76609.549800,2960.823768
259.860313,444.123565,-74004.825107,-3404.947333
259.862884,-6513.812290,-75077.358804,-1480.411884
259.865455,-50630.086433,-71553.319513,-2368.659014
259.868026,29460.196492,-74311.263306,444.123565
259.870597,-65138.122896,-72012.976812,1184.329507
259.873168,23094.425390,-76762.768900,-4145.153275
259.875739,148.041188,-73391.948708,-2812.782580
259.878310,-19097.313304,-73085.510509,-2220.617826
259.880882,8734.430116,-76149.892501,444.123565
259.883453,-39230.914926,-72319.415011,-3108.864956
259.886024,15840.407159,-74770.920605,-148.041188
259.888595,-22058.137072,-72625.853210,-1332.370696
259.891166,33901.432144,-74464.482406,1924.535449
259.893737,12139.377449,-76303.111601,-888.247130
259.896308,-3256.906145,-76456.330700,-2220.617826
259.898879,5033.400406,-75843.454302,-4589.276840
259.901450,-13619.789333,-73545.167808,1184.329507
259.904021,11843.295072,-72932.291410,2664.741391
259.906592,24426.796086,-73545.167808,-1480.411884
259.909164,9474.636058,-76609.549800,1036.288319
259.911735,4145.153275,-74770.920605,-4145.153275
259.914306,32569.061448,-75843.454302,-5329.482782
259.916877,-12583.501014,-74004.825107,1480.411884
259.919448,-34789.679274,-73085.510509,-2516.700203
259.922019,62325.340316,-74924.139704,-888.247130
259.924590,-17468.860231,-72779.072310,-888.247130
259.927161,27239.578666,-76456.330700,-5773.606348
259.929733,-13027.624579,-75537.016103,-0.000000
259.932305,-8142.265362,-73545.167808,-3701.029710
259.934877,21910.095883,-73698.386908,444.123565
259.937449,-11991.336260,-74617.701505,1924.535449
259.940022,23834.631332,-75230.577904,-3108.864956
259.942594,-8142.265362,-74464.482406,-3552.988522
259.945166,-18061.024985,-74464.482406,444.123565
259.947738,-29016.072926,-73238.729609,-444.123565
259.950310,-9030.512492,-71859.757712,1924.535449
259.952882,-12435.459826,-72932.291410,-2664.741391
259.955454,-9030.512492,-73698.386908,-0.000000
259.958026,-2072.576638,-75996.673402,-3849.070898
259.960598,-15840.407159,-75690.235202,-0.000000
259.963170,-1184.329507,-74770.920605,-0.000000
259.965742,-4737.318029,-74004.825107,4293.194464
259.968314,-23538.548956,-71246.881314,-3552.988522
259.970886,-51518.333563,-73698.386908,-1036.288319
259.973458,39082.873738,-76762.768900,-148.041188
259.976030,-78757.912229,-71706.538613,-2072.576638
259.978602,42339.779882,-76609.549800,-0.000000
259.981174,-68395.029041,-70327.566716,740.205942
259.983746,1036.288319,-75230.577904,-3701.029710
259.986319,-12583.501014,-74464.482406,-2072.576638
259.988891,-24130.713709,-73698.386908,-2368.659014
259.991463,12435.459826,-74158.044206,-2516.700203
259.994035,-27831.743419,-74158.044206,2664.741391
259.996607,-5329.482782,-76303.111601,-1628.453072
259.999179,-21169.889941,-73545.167808,-4145.153275
260.001751,18061.024985,-73698.386908,740.205942
260.004323,13619.789333,-74770.920605,148.041188
260.006895,12731.542202,-75383.797003,-296.082377
260.009467,9770.718434,-77528.864398,-5181.441594
260.012039,-12583.501014,-74617.701505,-2368.659014
260.014611,-888.247130,-72472.634111,2220.617826
260.017183,13915.871710,-72932.291410,592.164754
260.019755,11251.130318,-75077.358804,-1628.453072
260.022327,23686.590144,-75690.235202,-2516.700203
260.024899,9622.677246,-75996.673402,-2072.576638
260.027471,-2664.741391,-73851.606007,-2812.782580
260.030043,-12435.459826,-74158.044206,3997.112087
260.032616,16136.489536,-75383.797003,-296.082377
260.035188,29608.237680,-70634.004916,-4885.359217
260.037760,21317.931130,-77222.426198,296.082377
260.040332,12879.583391,-75843.454302,-6069.688724
260.042904,-11251.130318,-77528.864398,1776.494261
260.045476,-2516.700203,-72932.291410,-5921.647536
260.048048,9622.677246,-72932.291410,592.164754
260.050620,14063.912898,-75537.016103,-1184.329507
260.053192,9918.759623,-75690.235202,-4737.318029
260.055764,-20281.642811,-74004.825107,-1628.453072
260.058336,-32124.937883,-73698.386908,-2072.576638
260.060908,-13027.624579,-74004.825107,1924.535449
260.063480,-25018.960840,-70327.566716,-6661.853478
260.066052,12287.418637,-73698.386908,-1332.370696
260.068624,-16876.695478,-76609.549800,-1184.329507
260.071196,-2960.823768,-74924.139704,-5181.441594
260.073768,-19245.354492,-74617.701505,888.247130
260.076340,-49297.715737,-70174.347617,-1924.535449
260.078912,-4885.359217,-74464.482406,740.205942
260.081484,-9770.718434,-74464.482406,1332.370696
260.084056,-13027.624579,-74924.139704,296.082377
260.086628,32421.020260,-77375.645298,-1924.535449
260.089200,-45004.521274,-72932.291410,740.205942
260.091772,7402.059420,-75843.454302,-1480.411884
260.094344,-10066.800811,-71400.100414,444.123565
260.096916,-15248.242405,-74924.139704,148.041188
260.099488,5773.606348,-74311.263306,-2072.576638
260.102060,-17764.942608,-75230.577904,-1480.411884
260.104632,-5329.482782,-73391.948708,-5181.441594
260.107204,-17320.819043,-73545.167808,2664.741391
260.109776,-23834.631332,-73851.606007,-6365.771101
260.112348,28423.908173,-74158.044206,1184.329507
260.114920,9622.677246,-74004.825107,1480.411884
260.117492,13027.624579,-76149.892501,-1924.535449
260.120064,-592.164754,-77069.207099,-3997.112087
260.122637,-10658.965565,-73851.606007,-2516.700203
260.125209,1776.494261,-72779.072310,1924.535449
260.127781,17172.777854,-72779.072310,1184.329507
260.130353,12287.418637,-74924.139704,-1184.329507
260.132925,3997.112087,-75690.235202,-9178.553681
260.135497,26055.249158,-77835.302597,7402.059420
260.138069,-17172.777854,-73545.167808,-2072.576638
260.140642,7254.018232,-72625.853210,-2220.617826
260.143214,50185.962868,-75690.235202,1480.411884
260.145786,-6809.894666,-73698.386908,1480.411884
260.148359,43672.150578,-75077.358804,-5625.565159
260.150931,-8734.430116,-76762.768900,-740.205942
260.153504,10510.924376,-76303.111601,-2220.617826
260.156076,1332.370696,-74004.825107,3997.112087
260.158648,-2072.576638,-74004.825107,592.164754
260.161221,21317.931130,-74770.920605,-592.164754
260.163793,-148.041188,-74770.920605,-3256.906145
260.166365,-24870.919651,-72472.634111,296.082377
260.168938,-29904.320057,-75077.358804,-2960.823768
260.171510,-6365.771101,-74004.825107,1924.535449
260.174083,-14508.036463,-71400.100414,-1776.494261
260.176655,-6661.853478,-72625.853210,-888.247130
260.179227,-6809.894666,-75996.673402,-1776.494261
260.181800,-10214.842000,-74770.920605,-3404.947333
260.184372,-740.205942,-74311.263306,592.164754
260.186944,-40563.285622,-70787.224015,-1776.494261
260.189517,11103.089130,-73238.729609,-2960.823768
260.192089,888.247130,-75537.016103,2220.617826
260.194661,-48557.509795,-72012.976812,-1628.453072
260.197234,4885.359217,-73545.167808,-6661.853478
260.199806,1332.370696,-72472.634111,-6365.771101
260.202379,-46781.015534,-74464.482406,7846.182985
260.204951,-10214.842000,-73391.948708,-5773.606348
260.207523,-20133.601622,-73545.167808,2072.576638
260.210096,-8882.471304,-74617.701505,-3552.988522
260.212668,-7550.100608,-73391.948708,-0.000000
260.215240,-18949.272115,-74004.825107,-1776.494261
260.217813,-740.205942,-74617.701505,-4441.235652
260.220385,-2368.659014,-73851.606007,148.041188
260.222957,23982.672521,-73545.167808,2516.700203
260.225530,3849.070898,-76149.892501,592.164754
260.228102,3552.988522,-77835.302597,-1480.411884
260.230675,5033.400406,-76609.549800,-5921.647536
260.233247,-9474.636058,-72932.291410,1776.494261
260.235819,-3256.906145,-73238.729609,2220.617826
260.238391,14656.077652,-72932.291410,-3849.070898
260.240962,10510.924376,-77375.645298,2072.576638
260.243534,-28719.990550,-72472.634111,-8586.388927
260.246105,36270.091158,-76609.549800,-1184.329507
260.248677,-65138.122896,-72472.634111,-444.123565
260.251249,59216.475360,-76303.111601,-4885.359217
260.253820,-24870.919651,-74004.825107,3108.864956
260.256392,-1036.288319,-73545.167808,-3701.029710
260.258963,47077.097911,-77222.426198,-5477.523971
260.261535,-32717.102636,-74924.139704,1480.411884
260.264106,28868.031738,-74311.263306,-6069.688724
260.266678,-19541.436869,-75077.358804,5181.441594
260.269249,22650.301825,-74924.139704,-4589.276840
260.271821,3108.864956,-75383.797003,444.123565
260.274392,-17912.983796,-73391.948708,-2812.782580
260.276964,-13471.748144,-74464.482406,-4737.318029
260.279535,-27683.702231,-74004.825107,2812.782580
260.282107,-10658.965565,-72932.291410,-2516.700203
260.284678,-6809.894666,-73085.510509,740.205942
260.287250,-10362.883188,-75230.577904,-2812.782580
260.289821,4885.359217,-75690.235202,-2220.617826
260.292393,-18801.230927,-73391.948708,-1628.453072
260.294965,-33753.390955,-71859.757712,-148.041188
260.297536,-888.247130,-74311.263306,592.164754
260.300108,-22946.384202,-74158.044206,-296.082377
260.302679,30348.443622,-76762.768900,1036.288319
260.305251,-17320.819043,-74158.044206,-2368.659014
260.307822,-23242.466579,-71859.757712,-7550.100608
260.310394,-16432.571912,-73391.948708,4589.276840
260.312965,-54331.116143,-72932.291410,-1776.494261
260.315537,12435.459826,-74158.044206,-4293.194464
260.318108,-12583.501014,-74004.825107,-592.164754
260.320680,2072.576638,-74924.139704,-1776.494261
260.323251,-23390.507767,-75690.235202,-888.247130
260.325823,-19837.519246,-72932.291410,-2220.617826
260.328394,444.123565,-75383.797003,-0.000000
260.330966,23834.631332,-72779.072310,2516.700203
260.333537,17320.819043,-75383.797003,-148.041188
260.336109,-3404.947333,-78601.398095,-2960.823768
260.338681,3849.070898,-76915.987999,-5625.565159
260.341252,-5625.565159,-72779.072310,1332.370696
260.343823,-13027.624579,-71706.538613,2960.823768
260.346394,9918.759623,-76915.987999,4441.235652
260.348965,-10955.047942,-73391.948708,-7698.141797
260.351536,5181.441594,-75843.454302,-5921.647536
260.354107,1480.411884,-76609.549800,444.123565
260.356678,4293.194464,-75230.577904,592.164754
260.359249,-14359.995275,-75230.577904,1776.494261
260.361820,4737.318029,-72472.634111,-2516.700203
260.364392,1036.288319,-75230.577904,1628.453072
260.366963,-6365.771101,-75996.673402,-1480.411884
260.369534,1924.535449,-76915.987999,-296.082377
260.372105,-13027.624579,-75383.797003,4441.235652
260.374676,11695.253884,-74004.825107,-3404.947333
260.377247,4885.359217,-74770.920605,2072.576638
260.379818,15988.448347,-75230.577904,-7550.100608
260.382389,-34493.596897,-73545.167808,4737.318029
260.384960,-19541.436869,-74617.701505,-6957.935855
260.387531,-18505.148550,-75077.358804,1480.411884
260.390103,-12583.501014,-72625.853210,1628.453072
260.392674,-8734.430116,-72472.634111,-1628.453072
260.395245,-8734.430116,-75690.235202,-1036.288319
260.397816,-29904.320057,-76456.330700,-1924.535449
260.400387,-2368.659014,-73698.386908,2072.576638
260.402958,-24574.837274,-73391.948708,2072.576638
260.405529,-26055.249158,-72319.415011,-1628.453072
260.408100,-4885.359217,-74311.263306,-3108.864956
260.410671,37602.461854,-77375.645298,2960.823768
260.413242,-45596.686027,-73545.167808,888.247130
260.415814,2812.782580,-75996.673402,-740.205942
260.418385,-27683.702231,-73085.510509,1628.453072
260.420956,-3404.947333,-74004.825107,-3404.947333
260.423527,-7550.100608,-73391.948708,-3849.070898
260.426098,-8290.306550,-73545.167808,-2664.741391
260.428669,3552.988522,-74158.044206,-6957.935855
260.431240,-16432.571912,-74617.701505,2664.741391
260.433811,-10214.842000,-73545.167808,-5625.565159
260.436382,14804.118840,-74311.263306,2960.823768
260.438954,18061.024985,-74004.825107,-2072.576638
260.441525,10658.965565,-76609.549800,2220.617826
260.444095,-444.123565,-77375.645298,-5921.647536
260.446666,-6069.688724,-74158.044206,-2220.617826
260.449237,-6957.935855,-73545.167808,2812.782580
260.451807,-3108.864956,-74158.044206,1924.535449
260.454378,23982.672521,-75383.797003,-3404.947333
260.456949,-25611.125593,-72779.072310,-4737.318029
260.459520,9770.718434,-74770.920605,-5181.441594
260.462090,38638.750172,-77988.521696,888.247130
260.464661,-39526.997303,-72932.291410,-296.082377
260.467232,12287.418637,-72012.976812,-7698.141797
260.469802,14952.160028,-75383.797003,4145.153275
260.472373,-13175.665768,-75690.235202,-1332.370696
260.474944,27535.661042,-76762.768900,-1924.535449
260.477515,-27979.784608,-74617.701505,-296.082377
260.480085,21317.931130,-76762.768900,-1036.288319
260.482656,-13471.748144,-74158.044206,-0.000000
260.485227,10214.842000,-72779.072310,-2812.782580
260.487797,-17172.777854,-73698.386908,1628.453072
260.490368,-37158.338288,-72166.195912,-4293.194464
260.492939,-1480.411884,-75843.454302,2812.782580
260.495510,-33901.432144,-72932.291410,-6217.729913
260.498080,4145.153275,-72779.072310,2220.617826
260.500651,-7698.141797,-74924.139704,-1184.329507
260.503222,-20429.683999,-75383.797003,-888.247130
260.505792,-13471.748144,-73391.948708,-4441.235652
260.508363,-55219.363273,-73851.606007,4885.359217
260.510934,19541.436869,-72472.634111,-6661.853478
260.513504,-42487.821071,-76456.330700,4589.276840
260.516075,16284.530724,-72319.415011,-9622.677246
260.518646,-22946.384202,-77375.645298,3552.988522
260.521217,-48261.427418,-71859.757712,148.041188
260.523787,21169.889941,-74464.482406,-1036.288319
260.526358,-49593.798114,-73085.510509,3849.070898
260.528929,-2220.617826,-76303.111601,740.205942
260.531499,-7846.182985,-74617.701505,-148.041188
260.534070,-18949.272115,-73391.948708,-2368.659014
260.536641,1036.288319,-76915.987999,1184.329507
260.539212,-32272.979071,-73851.606007,-1036.288319
260.541782,25907.207970,-73698.386908,-1924.535449
260.544353,5921.647536,-73698.386908,1332.370696
260.546923,9474.636058,-76456.330700,-740.205942
260.549494,9474.636058,-77375.645298,-5773.606348
260.552064,-11547.212695,-74004.825107,-1036.288319
260.554635,6661.853478,-72779.072310,-1184.329507
260.557205,2516.700203,-72779.072310,1924.535449
260.559776,-10807.006753,-74464.482406,-1776.494261
260.562346,14952.160028,-76915.987999,2368.659014
260.564916,55515.445650,-76762.768900,-3997.112087
260.567487,-94154.195822,-71706.538613,2368.659014
260.570057,65138.122896,-76149.892501,-9622.677246
260.572628,-42487.821071,-75383.797003,9918.759623
260.575198,22058.137072,-73085.510509,-7402.059420
260.577768,22650.301825,-76303.111601,2072.576638
260.580339,-25315.043216,-73698.386908,-4737.318029
260.582909,33457.308578,-75537.016103,-6513.812290
260.585480,-25611.125593,-74004.825107,2368.659014
260.588050,19985.560434,-75843.454302,-1184.329507
260.590621,-1628.453072,-74770.920605,-3552.988522
260.593191,-28275.866984,-71400.100414,296.082377
260.595761,-16876.695478,-75230.577904,-1924.535449
260.598332,-23094.425390,-75383.797003,3404.947333
260.600902,-1036.288319,-74004.825107,-1184.329507
260.603473,-17616.901420,-73851.606007,444.123565
260.606043,9770.718434,-74924.139704,-888.247130
260.608614,-7254.018232,-73545.167808,-4293.194464
260.611184,-39082.873738,-72625.853210,-3849.070898
260.613754,-21910.095883,-73698.386908,-0.000000
260.616325,4589.276840,-74770.920605,4441.235652
260.618895,-28571.949361,-75690.235202,-2220.617826
260.621466,15988.448347,-76149.892501,-1332.370696
260.624036,-32865.143825,-71859.757712,-2220.617826
260.626607,20429.683999,-74924.139704,-148.041188
260.629177,-37898.544230,-71093.662214,1924.535449
260.631747,1924.535449,-76915.987999,-2960.823768
260.634318,-11547.212695,-73698.386908,-3256.906145
260.636888,2516.700203,-74311.263306,1184.329507
260.639459,-10066.800811,-74311.263306,-3552.988522
260.642029,-19097.313304,-72779.072310,-2220.617826
260.644599,-2960.823768,-75077.358804,-592.164754
260.647170,21762.054695,-73545.167808,-148.041188
260.649739,11547.212695,-74770.920605,2516.700203
260.652309,2368.659014,-76456.330700,-4885.359217
260.654878,7105.977043,-77069.207099,-3404.947333
260.657448,1184.329507,-74158.044206,1184.329507
260.660017,-1776.494261,-72012.976812,-148.041188
260.662586,6365.771101,-73391.948708,-2516.700203
260.665156,-11695.253884,-76303.111601,1924.535449
260.667725,7994.224174,-74770.920605,-6365.771101
260.670294,-3108.864956,-77222.426198,2220.617826
260.672864,-13767.830521,-74004.825107,-3108.864956
260.675433,40563.285622,-75690.235202,-296.082377
260.678003,-24870.919651,-71400.100414,-1628.453072
260.680572,28571.949361,-77069.207099,-1184.329507
260.683141,-4441.235652,-76609.549800,740.205942
260.685711,-1628.453072,-76303.111601,-2220.617826
260.688280,-296.082377,-74924.139704,-740.205942
260.690849,2220.617826,-74617.701505,148.041188
260.693419,11399.171507,-73391.948708,-3256.906145
260.695988,-20429.683999,-72625.853210,1184.329507
260.698558,-24130.713709,-73391.948708,-3108.864956
260.701127,-16284.530724,-75690.235202,296.082377
260.703696,-19985.560434,-74158.044206,-3404.947333
260.706266,1332.370696,-72779.072310,-888.247130
260.708835,-16876.695478,-73851.606007,1332.370696
260.711404,10510.924376,-74617.701505,-3108.864956
260.713974,-23686.590144,-74770.920605,-2960.823768
260.716543,148.041188,-73851.606007,444.123565
260.719113,-47669.262665,-71706.538613,-4145.153275
260.721682,6957.935855,-74924.139704,-2220.617826
260.724251,12731.542202,-76303.111601,2220.617826
260.726821,-59512.557737,-71400.100414,-4145.153275
260.729390,29460.196492,-75077.358804,-1924.535449
260.731959,-67506.781910,-72319.415011,5625.565159
260.734529,-19245.354492,-75077.358804,-4293.194464
260.737098,6513.812290,-76303.111601,148.041188
260.739668,-34049.473332,-73085.510509,2664.741391
260.742237,22354.219448,-75230.577904,-2072.576638
260.744806,-37750.503042,-73698.386908,2368.659014
260.747376,19097.313304,-76303.111601,-3256.906145
260.749945,-1332.370696,-73851.606007,6661.853478
260.752514,14952.160028,-75230.577904,444.123565
260.755083,740.205942,-76456.330700,-1036.288319
260.757651,-740.205942,-75383.797003,-5477.523971
260.760220,-2220.617826,-74617.701505,-0.000000
260.762789,-15988.448347,-72472.634111,1776.494261
260.765357,20873.807564,-76609.549800,4737.318029
260.767926,20577.725188,-74158.044206,-8142.265362
260.770495,21021.848753,-77835.302597,2664.741391
260.773064,-0.000000,-75230.577904,3552.988522
260.775632,-14952.160028,-72779.072310,-4885.359217
260.778201,14211.954086,-75537.016103,1480.411884
260.780770,-12435.459826,-74617.701505,-444.123565
260.783339,17616.901420,-75537.016103,-1628.453072
260.785907,9030.512492,-75843.454302,888.247130
260.788476,1332.370696,-76915.987999,-2812.782580
260.791045,6069.688724,-74924.139704,-2368.659014
260.793614,-2664.741391,-74158.044206,1480.411884
260.796182,10807.006753,-74617.701505,-3849.070898
260.798751,-25018.960840,-72166.195912,2960.823768
260.801320,-19689.478057,-73545.167808,-3552.988522
260.803888,-19985.560434,-74464.482406,1776.494261
260.806457,-12879.583391,-74770.920605,-2960.823768
260.809026,-5329.482782,-73391.948708,-1036.288319
260.811595,-4589.276840,-73698.386908,-444.123565
260.814163,-29460.196492,-75383.797003,592.164754
260.816732,-25611.125593,-72166.195912,-2368.659014
260.819301,-33457.308578,-72932.291410,2664.741391
260.821870,-13175.665768,-71553.319513,-5329.482782
260.824438,-1184.329507,-74617.701505,888.247130
260.827007,-38638.750172,-72932.291410,-5921.647536
260.829576,27535.661042,-75077.358804,-0.000000
260.832145,-62473.381505,-73085.510509,5329.482782
260.834713,7698.141797,-72319.415011,-6069.688724
260.837282,-10658.965565,-73851.606007,740.205942
260.839850,-29016.072926,-74158.044206,-5773.606348
260.842419,25611.125593,-75383.797003,6069.688724
260.844988,-43376.068201,-73545.167808,444.123565
260.847556,14952.160028,-76456.330700,-1628.453072
260.850125,-296.082377,-73851.606007,1184.329507
260.852694,26055.249158,-73851.606007,2368.659014
260.855262,6809.894666,-74924.139704,888.247130
260.857831,-1036.288319,-78448.178995,-888.247130
260.860400,5921.647536,-77222.426198,-5477.523971
260.862968,-8142.265362,-74464.482406,2220.617826
260.865537,18653.189738,-72319.415011,1184.329507
260.868105,-3552.988522,-73238.729609,-1776.494261
260.870674,27979.784608,-77682.083497,-0.000000
260.873243,11399.171507,-76303.111601,2220.617826
260.875811,-75056.882519,-70634.004916,-5477.523971
260.878380,55367.404462,-75383.797003,-4885.359217
260.880949,-38046.585419,-74924.139704,6365.771101
260.883517,19689.478057,-73238.729609,-5625.565159
260.886086,7698.141797,-75230.577904,5181.441594
260.888655,-30348.443622,-77222.426198,3849.070898
260.891223,33309.267390,-75230.577904,-4293.194464
260.893792,-22502.260637,-74617.701505,2516.700203
260.896360,20725.766376,-75690.235202,-3256.906145
260.898929,-1776.494261,-75690.235202,-1628.453072
260.901498,-26351.331535,-71400.100414,1332.370696
260.904066,-18505.148550,-75230.577904,-1924.535449
260.906635,-23982.672521,-74158.044206,2220.617826
260.909204,-296.082377,-74617.701505,-1628.453072
260.911772,-24130.713709,-73238.729609,-296.082377
260.914341,14656.077652,-74617.701505,-2072.576638
260.916910,-10955.047942,-73545.167808,-4737.318029
260.919478,-10214.842000,-74924.139704,6661.853478
260.922047,-28571.949361,-71246.881314,-4441.235652
260.924615,-16136.489536,-71859.757712,-5625.565159
260.927184,740.205942,-75383.797003,-148.041188
260.929753,-5773.606348,-73391.948708,-5625.565159
260.932321,-4145.153275,-73391.948708,1776.494261
260.934890,-27683.702231,-72319.415011,-2368.659014
260.937458,-20133.601622,-73545.167808,592.164754
260.940025,2516.700203,-75690.235202,-1184.329507
260.942593,-4441.235652,-75230.577904,-592.164754
260.945160,-19541.436869,-73545.167808,888.247130
260.947728,-5773.606348,-73851.606007,-5181.441594
260.950295,-24426.796086,-73698.386908,740.205942
260.952863,28275.866984,-74004.825107,592.164754
260.955431,13619.789333,-75077.358804,-296.082377
260.957998,11843.295072,-76149.892501,1036.288319
260.960566,1924.535449,-78601.398095,-6661.853478
260.963133,-11547.212695,-73545.167808,-740.205942
260.965701,-15248.242405,-72166.195912,3701.029710
260.968269,5181.441594,-73391.948708,-592.164754
260.970836,2220.617826,-77222.426198,5329.482782
260.973404,-6957.935855,-73545.167808,-9770.718434
260.975971,12287.418637,-75843.454302,-740.205942
260.978539,-36862.255912,-72166.195912,-3701.029710
260.981107,43820.191766,-75230.577904,-148.041188
260.983674,18653.189738,-74924.139704,1332.370696
260.986242,23242.466579,-74158.044206,-4145.153275
260.988809,18061.024985,-76762.768900,1480.411884
260.991377,-8438.347739,-75690.235202,-1036.288319
260.993945,10362.883188,-75996.673402,-4885.359217
260.996512,-2072.576638,-74311.263306,740.205942
260.999080,15988.448347,-74924.139704,-1184.329507
261.001647,-33753.390955,-71706.538613,3404.947333
261.004215,-14952.160028,-75230.577904,-3552.988522
261.006782,-10362.883188,-74770.920605,1776.494261
261.009350,-18061.024985,-73698.386908,-5921.647536
261.011918,-4293.194464,-73085.510509,-444.123565
261.014485,-13767.830521,-75690.235202,296.082377
261.017053,-33605.349767,-74464.482406,1184.329507
261.019620,-2516.700203,-76456.330700,4885.359217
261.022188,-38934.832549,-70940.443115,-5773.606348
261.024756,18061.024985,-76609.549800,-1184.329507
261.027323,-33901.432144,-74464.482406,-888.247130
261.029891,-19837.519246,-73545.167808,-2220.617826
261.032458,-1776.494261,-71553.319513,-8586.388927
261.035026,-57588.022288,-73545.167808,4589.276840
261.037594,-296.082377,-73851.606007,-148.041188
261.040161,-18209.066173,-73391.948708,-4589.276840
261.042728,8586.388927,-75843.454302,-1036.288319
261.045295,-11547.212695,-75230.577904,296.082377
261.047862,-13027.624579,-73545.167808,-4293.194464
261.050429,-6513.812290,-74770.920605,-1184.329507
261.052996,16432.571912,-73545.167808,2664.741391
261.055563,20133.601622,-75537.016103,1628.453072
261.058130,2812.782580,-76303.111601,-2368.659014
261.060697,-1924.535449,-77222.426198,-3997.112087
261.063264,-2664.741391,-73545.167808,-740.205942
261.065832,-14359.995275,-73238.729609,2516.700203
261.068399,5033.400406,-72932.291410,-4885.359217
261.070966,-14804.118840,-74617.701505,1332.370696
261.073533,24870.919651,-75383.797003,-6661.853478
261.076100,23834.631332,-77682.083497,2368.659014
261.078667,-29608.237680,-75996.673402,3404.947333
261.081234,15248.242405,-73545.167808,-6661.853478
261.083801,1480.411884,-74924.139704,5477.523971
261.086368,-6365.771101,-73851.606007,-1480.411884
261.088935,20133.601622,-76303.111601,-0.000000
261.091502,-22206.178260,-74464.482406,-1036.288319
261.094070,18505.148550,-77069.207099,-2516.700203
261.096637,1332.370696,-74770.920605,740.205942
261.099204,-9622.677246,-71553.319513,-296.082377
261.101771,-16876.695478,-73698.386908,2072.576638
261.104338,-25611.125593,-73238.729609,-148.041188
261.106905,-7994.224174,-75843.454302,-3108.864956
261.109472,-14508.036463,-74158.044206,148.041188
261.112039,-11547.212695,-73391.948708,-2220.617826
261.114606,6661.853478,-73545.167808,-1924.535449
261.117173,-16284.530724,-73085.510509,-2812.782580
261.119740,-33605.349767,-73391.948708,2220.617826
261.122308,-23834.631332,-71553.319513,-2960.823768
261.124875,-6069.688724,-74770.920605,-3256.906145
261.127442,-23834.631332,-74464.482406,1628.453072
261.130009,23686.590144,-75077.358804,-4589.276840
261.132576,-41155.450375,-70634.004916,-1480.411884
261.135143,2220.617826,-73851.606007,1332.370696
261.137710,-17616.901420,-73238.729609,-3552.988522
261.140277,-8734.430116,-74311.263306,-2072.576638
261.142843,3404.947333,-75077.358804,1184.329507
261.145409,-16432.571912,-74617.701505,1184.329507
261.147975,-8290.306550,-74464.482406,-4737.318029
261.150541,2960.823768,-73545.167808,1332.370696
261.153107,16580.613101,-73545.167808,1776.494261
261.155674,15840.407159,-75690.235202,-1924.535449
261.158240,-1628.453072,-76303.111601,-2960.823768
261.160806,-2368.659014,-75843.454302,-1628.453072
261.163372,15396.283594,-72472.634111,-888.247130
261.165938,5921.647536,-71706.538613,-1924.535449
261.168504,21465.972318,-78754.617194,6809.894666
261.171070,-41599.573940,-70787.224015,-10658.965565
261.173636,34641.638086,-74617.701505,-6957.935855
261.176202,23538.548956,-79061.055394,6217.729913
261.178768,-61289.051998,-69714.690318,-5921.647536
261.181334,82310.900750,-79367.493593,3256.906145
261.183900,-45300.603650,-70940.443115,2812.782580
261.186466,58772.351795,-76149.892501,-10362.883188
261.189032,-29312.155303,-74158.044206,4145.153275
261.191598,-25907.207970,-74617.701505,-9918.759623
261.194164,36418.132346,-76609.549800,-4737.318029
261.196730,-25759.166782,-72932.291410,2960.823768
261.199297,3108.864956,-72625.853210,-2960.823768
261.201863,-39230.914926,-73085.510509,2220.617826
261.204429,-592.164754,-75230.577904,-2072.576638
261.206995,-18653.189738,-74464.482406,-2664.741391
261.209561,-14804.118840,-73545.167808,-3404.947333
261.212127,-9178.553681,-74770.920605,-1036.288319
261.214693,-29608.237680,-74158.044206,1628.453072
261.217259,-12583.501014,-72625.853210,-1184.329507
261.219825,-13027.624579,-74924.139704,-1480.411884
261.222391,-13175.665768,-71553.319513,-592.164754
261.224957,-7698.141797,-77222.426198,1924.535449
261.227523,888.247130,-72012.976812,-9178.553681
261.230089,-42043.697506,-71246.881314,-2812.782580
261.232655,-21910.095883,-75383.797003,2812.782580
261.235221,-14063.912898,-71859.757712,-148.041188
261.237787,-17764.942608,-75690.235202,-1480.411884
261.240353,11991.336260,-75690.235202,-1776.494261
261.242919,-22798.343014,-74004.825107,1776.494261
261.245485,-3849.070898,-73851.606007,-7846.182985
261.248051,-7994.224174,-73698.386908,3701.029710
261.250616,19393.395680,-74464.482406,3701.029710
261.253182,19541.436869,-74924.139704,296.082377
261.255747,-2368.659014,-75843.454302,-1776.494261
261.258313,18061.024985,-77988.521696,-5033.400406
261.260878,-29312.155303,-74158.044206,2664.741391
261.263444,-7105.977043,-74311.263306,2368.659014
261.266009,296.082377,-71246.881314,-5477.523971
261.268575,1628.453072,-73545.167808,-4441.235652
261.271140,10955.047942,-77375.645298,-888.247130
261.273706,-14063.912898,-75537.016103,-592.164754
261.276272,11695.253884,-75996.673402,-2516.700203
261.278837,10066.800811,-75996.673402,5773.606348
261.281403,28868.031738,-72319.415011,-4885.359217
261.283968,10510.924376,-75077.358804,740.205942
261.286534,8438.347739,-77375.645298,-2220.617826
261.289099,-14952.160028,-75077.358804,-2960.823768
261.291665,8290.306550,-74924.139704,-2220.617826
261.294230,5181.441594,-73391.948708,-2812.782580
261.296796,-19245.354492,-72779.072310,4885.359217
261.299362,-24574.837274,-73085.510509,-4737.318029
261.301927,-8290.306550,-75537.016103,888.247130
261.304493,-27979.784608,-74311.263306,-5033.400406
261.307058,-2812.782580,-74158.044206,-1776.494261
261.309624,-9326.594869,-74158.044206,-296.082377
261.312189,-18949.272115,-72932.291410,-4293.194464
261.314755,-8882.471304,-75690.235202,5181.441594
261.317320,-53294.827824,-71706.538613,-2960.823768
261.319886,10510.924376,-76456.330700,1184.329507
261.322451,-30940.608376,-72472.634111,-7402.059420
261.325017,-25167.002028,-73851.606007,1924.535449
261.327583,37750.503042,-78754.617194,1480.411884
261.330148,-58772.351795,-70021.128517,2516.700203
261.332714,12583.501014,-75843.454302,-1184.329507
261.335279,-23982.672521,-72472.634111,-4145.153275
261.337845,2368.659014,-75383.797003,-1184.329507
261.340410,-5625.565159,-75996.673402,-2516.700203
261.342976,-18801.230927,-73698.386908,-2516.700203
261.345541,33013.185013,-75230.577904,1776.494261
261.348073,-1776.494261,-72625.853210,-740.205942
261.350605,25907.207970,-75230.577904,-592.164754
261.353137,148.041188,-77528.864398,-4441.235652
261.355669,-3108.864956,-75843.454302,-3108.864956
261.358201,4145.153275,-74617.701505,1332.370696
261.360733,-9770.718434,-73085.510509,3108.864956
261.363265,14656.077652,-76149.892501,-8290.306550
261.365797,3256.906145,-74004.825107,-3701.029710
261.368329,4885.359217,-76149.892501,888.247130
261.370861,-41451.532752,-74004.825107,-888.247130
261.373393,32717.102636,-77682.083497,-296.082377
261.375925,-17024.736666,-73545.167808,-1036.288319
261.378457,36714.214723,-75077.358804,-2368.659014
261.380989,5329.482782,-73391.948708,740.205942
261.383521,-14211.954086,-74617.701505,-4441.235652
261.386053,13619.789333,-77528.864398,-740.205942
261.388585,-6365.771101,-74004.825107,592.164754
261.391117,444.123565,-74004.825107,-2072.576638
261.393649,-25018.960840,-71859.757712,4589.276840
261.396181,-23834.631332,-73698.386908,-1924.535449
261.398713,-6809.894666,-74924.139704,-3552.988522
261.401245,-4737.318029,-74311.263306,3256.906145
261.403777,-19837.519246,-74311.263306,-1776.494261
261.406309,13175.665768,-72779.072310,-3552.988522
261.408841,-15396.283594,-75996.673402,6217.729913
261.411373,12879.583391,-75383.797003,-2812.782580
261.413905,-23094.425390,-74924.139704,2812.782580
261.416437,-38194.626607,-72012.976812,-3997.112087
261.418969,24574.837274,-75690.235202,-1924.535449
261.421501,-11103.089130,-73391.948708,-2220.617826
261.424033,-34345.555709,-72319.415011,-2072.576638
261.426565,-592.164754,-73085.510509,148.041188
261.429097,-36566.173535,-73238.729609,1924.535449
261.431629,10955.047942,-74617.701505,-5181.441594
261.434161,-22650.301825,-75230.577904,740.205942
261.436693,1480.411884,-74158.044206,-3849.070898
261.439225,15544.324782,-75077.358804,-1480.411884
261.441757,1332.370696,-72472.634111,4885.359217
261.444289,22354.219448,-75077.358804,-888.247130
261.446821,-7846.182985,-75230.577904,296.082377
261.449327,18949.272115,-77069.207099,-6957.935855
261.451833,-25907.207970,-73391.948708,444.123565
261.454338,6809.894666,-75230.577904,3256.906145
261.456844,13175.665768,-77682.083497,-2220.617826
261.459350,-20725.766376,-74617.701505,-2664.741391
261.461856,7550.100608,-75843.454302,-4293.194464
261.464362,-23834.631332,-74464.482406,148.041188
261.466868,14656.077652,-74158.044206,-7994.224174
261.469373,22058.137072,-74311.263306,-3849.070898
261.471879,-9326.594869,-73851.606007,1776.494261
261.474385,22798.343014,-76149.892501,-296.082377
261.476891,-10066.800811,-73851.606007,-296.082377
261.479397,19245.354492,-77528.864398,-6513.812290
261.481903,-10214.842000,-74770.920605,1924.535449
261.484408,12731.542202,-74004.825107,-4737.318029
261.486914,-29460.196492,-71400.100414,3552.988522
261.489420,-12583.501014,-74464.482406,740.205942
261.491926,-14063.912898,-74311.263306,-1776.494261
261.494432,-15840.407159,-73698.386908,-1036.288319
261.496938,-7402.059420,-75230.577904,-888.247130
261.499443,1924.535449,-73391.948708,-3552.988522
261.501949,-28127.825796,-71400.100414,-1924.535449
261.504455,-38638.750172,-74004.825107,3108.864956
261.506961,5181.441594,-71400.100414,-7846.182985
261.509467,-23982.672521,-77069.207099,6809.894666
261.511973,-63065.546258,-66803.527426,-10066.800811
261.514478,73576.470635,-73391.948708,-9622.677246
261.516984,-59512.557737,-74311.263306,7698.141797
261.519490,-11251.130318,-72012.976812,-7994.224174
261.521996,11399.171507,-76456.330700,2812.782580
261.524502,-48557.509795,-70940.443115,-2812.782580
261.527008,39378.956114,-79367.493593,1184.329507
261.529513,-45152.562462,-73545.167808,4589.276840
261.532019,22502.260637,-74770.920605,-4293.194464
261.534525,1184.329507,-74311.263306,3552.988522
261.537031,19541.436869,-74158.044206,-0.000000
261.539537,10658.965565,-76762.768900,-2220.617826
261.542043,-2072.576638,-75843.454302,-2368.659014
261.544548,4589.276840,-74311.263306,-2220.617826
261.547054,-8882.471304,-74158.044206,2960.823768
261.549572,-10807.006753,-74311.263306,-1628.453072
261.552090,7698.141797,-74617.701505,-2368.659014
261.554608,15840.407159,-76609.549800,-2812.782580
261.557126,-10214.842000,-73698.386908,-444.123565
261.559644,-2516.700203,-76915.987999,-592.164754
261.562161,11695.253884,-73545.167808,-3404.947333
261.564679,740.205942,-76609.549800,4293.194464
261.567197,20873.807564,-74617.701505,-4885.359217
261.569715,-7105.977043,-73698.386908,-1628.453072
261.572233,-3108.864956,-75843.454302,-1184.329507
261.574751,1628.453072,-74311.263306,-3404.947333
261.577268,5329.482782,-75230.577904,1924.535449
261.579786,-14211.954086,-71859.757712,444.123565
261.582304,-25759.166782,-73851.606007,1924.535449
261.584822,-9326.594869,-75230.577904,-2220.617826
261.587340,-23686.590144,-74770.920605,-2072.576638
261.589858,-444.123565,-74464.482406,-0.000000
261.592376,-0.000000,-73238.729609,-3256.906145
261.594893,-32124.937883,-72472.634111,-2664.741391
261.597411,-32717.102636,-74004.825107,2516.700203
261.599929,7105.977043,-73085.510509,-3108.864956
261.602447,-17468.860231,-75230.577904,3552.988522
261.604965,11695.253884,-74924.139704,-444.123565
261.607483,-42487.821071,-74617.701505,888.247130
261.610001,-18653.189738,-73391.948708,-1628.453072
261.612518,-22798.343014,-72166.195912,-0.000000
261.615036,-26203.290347,-71246.881314,740.205942
261.617554,9622.677246,-75537.016103,-296.082377
261.620072,-13767.830521,-74924.139704,296.082377
261.622590,-5625.565159,-73698.386908,-3404.947333
261.625108,-3997.112087,-73238.729609,-3108.864956
261.627626,6957.935855,-73238.729609,148.041188
261.630143,23538.548956,-75230.577904,1036.288319
261.632661,-9178.553681,-75383.797003,-1924.535449
261.635179,18061.024985,-77988.521696,-3552.988522
261.637697,-21169.889941,-75230.577904,888.247130
261.640215,-1332.370696,-74311.263306,2812.782580
261.642733,8734.430116,-72012.976812,-5625.565159
261.645250,-6957.935855,-73238.729609,-6513.812290
261.647768,14656.077652,-77835.302597,1628.453072
261.650295,-30200.402434,-71553.319513,-5329.482782
261.652823,37602.461854,-78754.617194,-444.123565
261.655352,-29460.196492,-72779.072310,1776.494261
261.657880,32569.061448,-76149.892501,-1036.288319
261.660408,-10955.047942,-73238.729609,1184.329507
261.662936,7254.018232,-75383.797003,-1036.288319
261.665464,13915.871710,-76915.987999,-2812.782580
261.667992,-10807.006753,-75077.358804,2664.741391
261.670520,1332.370696,-73698.386908,-1628.453072
261.673049,-32272.979071,-71553.319513,2960.823768
261.675577,-9030.512492,-75077.358804,-2368.659014
261.678105,-26351.331535,-74617.701505,-2368.659014
261.680633,1628.453072,-74924.139704,-0.000000
261.683161,-8734.430116,-75230.577904,-444.123565
261.685689,-11103.089130,-74158.044206,444.123565
261.688217,10214.842000,-76609.549800,1776.494261
261.690746,-44560.397708,-70787.224015,-2072.576638
261.693274,32717.102636,-76149.892501,-3108.864956
261.695802,-48853.592172,-72932.291410,-4737.318029
261.698330,6809.894666,-75537.016103,444.123565
261.700858,27535.661042,-74924.139704,-5625.565159
261.703386,-57736.063476,-70940.443115,1776.494261
261.705914,18505.148550,-74924.139704,-1924.535449
261.708443,-39082.873738,-70327.566716,-2960.823768
261.710971,11399.171507,-76609.549800,-3849.070898
261.713499,-17616.901420,-75843.454302,-1776.494261
261.716027,-13471.748144,-73851.606007,-4293.194464
261.718555,18505.148550,-73698.386908,1480.411884
261.721083,740.205942,-73851.606007,2220.617826
261.723611,13471.748144,-76456.330700,-2960.823768
261.726139,3552.988522,-76609.549800,-2664.741391
261.728668,-10510.924376,-74464.482406,-3404.947333
261.731196,1184.329507,-74617.701505,3701.029710
261.733724,9622.677246,-74158.044206,2516.700203
261.736252,2220.617826,-74770.920605,-1036.288319
261.738780,-29016.072926,-75537.016103,3256.906145
261.741308,27831.743419,-74924.139704,-4885.359217
261.743836,14508.036463,-75996.673402,1184.329507
261.746365,1480.411884,-75230.577904,-1332.370696
261.748893,43376.068201,-75383.797003,-1332.370696
261.751430,-5773.606348,-73085.510509,4737.318029
261.753967,30348.443622,-74311.263306,-5477.523971
261.756504,-7550.100608,-75383.797003,2072.576638
261.759041,2368.659014,-74311.263306,-2960.823768
261.761578,-1480.411884,-73851.606007,-4145.153275
261.764115,-30052.361245,-71246.881314,3997.112087
261.766653,-7105.977043,-73391.948708,-2368.659014
261.769190,-15692.365970,-74004.825107,2516.700203
261.771727,-14359.995275,-74617.701505,-5033.400406
261.774264,-13471.748144,-74311.263306,-1184.329507
261.776801,-3404.947333,-72779.072310,-2368.659014
261.779338,-27979.784608,-72932.291410,-1184.329507
261.781875,17616.901420,-75077.358804,1332.370696
261.784412,-14656.077652,-74924.139704,3997.112087
261.786950,-29312.155303,-73545.167808,-888.247130
261.789487,-9030.512492,-74464.482406,-1924.535449
261.792024,-14063.912898,-71859.757712,-5329.482782
261.794561,-26795.455100,-73545.167808,296.082377
261.797098,-2960.823768,-72472.634111,-2812.782580
261.799635,-16876.695478,-71553.319513,-2516.700203
261.802172,-4293.194464,-75077.358804,-1628.453072
261.804709,2664.741391,-76303.111601,-1924.535449
261.807247,-26795.455100,-74311.263306,-4737.318029
261.809784,30496.484810,-75077.358804,1776.494261
261.812321,-6365.771101,-72779.072310,2072.576638
261.814858,24278.754898,-75537.016103,-2368.659014
261.817395,-2960.823768,-75843.454302,-1332.370696
261.819932,7994.224174,-75383.797003,-5625.565159
261.822469,-296.082377,-74770.920605,4145.153275
261.825006,-19985.560434,-71706.538613,-4589.276840
261.827544,-2220.617826,-75077.358804,1480.411884
261.830081,26499.372724,-76303.111601,-1480.411884
261.832618,-36862.255912,-72625.853210,-5033.400406
261.835155,33013.185013,-75843.454302,-2664.741391
261.837692,12435.459826,-75077.358804,-1036.288319
261.840229,2960.823768,-75230.577904,-2368.659014
261.842766,26055.249158,-75996.673402,2664.741391
261.845303,-7550.100608,-74924.139704,2516.700203
261.847841,18061.024985,-77069.207099,-1184.329507
261.850378,-19097.313304,-73085.510509,296.082377
261.852921,-148.041188,-73851.606007,-2368.659014
261.855465,-27239.578666,-72625.853210,3997.112087
261.858009,-13027.624579,-74464.482406,-296.082377
261.860553,-11399.171507,-74004.825107,1184.329507
261.863097,-20133.601622,-73851.606007,-2220.617826
261.865640,-15248.242405,-74770.920605,-2220.617826
261.868184,-23982.672521,-75230.577904,2368.659014
261.870728,-21317.931130,-73698.386908,1332.370696
261.873272,25315.043216,-75383.797003,740.205942
261.875815,-99631.719793,-71553.319513,-148.041188
261.878359,92377.701562,-79520.712692,-3552.988522
261.880903,-90157.083736,-72012.976812,-888.247130
261.883447,1924.535449,-76303.111601,-2960.823768
261.885990,3997.112087,-72932.291410,-0.000000
261.888534,-53590.910201,-70787.224015,-2220.617826
261.891078,30792.567187,-75537.016103,-1480.411884
261.893622,-37898.544230,-74617.701505,-1628.453072
261.896165,18061.024985,-75383.797003,-5625.565159
261.898709,-26351.331535,-74158.044206,-1924.535449
261.901253,22206.178260,-73238.729609,2812.782580
261.903797,15100.201217,-75230.577904,-1184.329507
261.906340,6809.894666,-73698.386908,296.082377
261.908884,27239.578666,-77988.521696,-3997.112087
261.911428,-28423.908173,-74004.825107,-592.164754
261.913972,4589.276840,-74770.920605,3701.029710
261.916515,-740.205942,-71859.757712,-6069.688724
261.919059,19541.436869,-75077.358804,2960.823768
261.921603,7994.224174,-74464.482406,-3404.947333
261.924147,-7698.141797,-74158.044206,-1184.329507
261.926690,-148.041188,-74004.825107,-1332.370696
261.929234,32865.143825,-75843.454302,2664.741391
261.931778,17024.736666,-74158.044206,-1184.329507
261.934322,12435.459826,-75077.358804,444.123565
