#time,accel_x,accel_y,accel_z
397.499516,-3256.906145,-73391.948708,-1184.329507
397.502168,-3552.988522,-74770.920605,-444.123565
397.504820,-3997.112087,-74464.482406,-1036.288319
397.507472,-3256.906145,-74464.482406,-1036.288319
397.510124,-3404.947333,-74617.701505,-592.164754
397.512776,-3701.029710,-74770.920605,-444.123565
397.515428,-3256.906145,-74464.482406,-1036.288319
397.518081,-3552.988522,-74617.701505,-1036.288319
397.520733,-3552.988522,-74158.044206,-888.247130
397.523385,-1628.453072,-72779.072310,1332.370696
397.526037,-5033.400406,-76149.892501,-23834.631332
397.528689,-6217.729913,-71400.100414,1332.370696
397.531341,4441.235652,-73238.729609,-296.082377
397.533993,-9622.677246,-74004.825107,19245.354492
397.536646,-148.041188,-75537.016103,14211.954086
397.539298,-11251.130318,-77682.083497,7254.018232
397.541950,-8290.306550,-74924.139704,-3552.988522
397.544602,592.164754,-74617.701505,-2072.576638
397.547254,-15100.201217,-70634.004916,-1036.288319
397.549906,2960.823768,-72472.634111,8438.347739
397.552558,-7254.018232,-74004.825107,2220.617826
397.555201,-3849.070898,-75537.016103,2072.576638
397.557843,-7698.141797,-77682.083497,1924.535449
397.560485,-7994.224174,-76303.111601,-6809.894666
397.563127,-2812.782580,-74311.263306,-8586.388927
397.565769,-3997.112087,-72012.976812,-6513.812290
397.568411,-1332.370696,-72625.853210,-2812.782580
397.571053,-6365.771101,-74770.920605,-5625.565159
397.573695,-2368.659014,-76456.330700,-3108.864956
397.576337,-2220.617826,-75690.235202,-3701.029710
397.578979,-3997.112087,-74464.482406,1924.535449
397.581621,-1924.535449,-76609.549800,10066.800811
397.584263,-8142.265362,-72012.976812,-7698.141797
397.586905,-1628.453072,-75230.577904,5329.482782
397.589548,-2368.659014,-75996.673402,-16580.613101
397.592190,-6069.688724,-71246.881314,-4441.235652
397.594832,-1036.288319,-73698.386908,13323.706956
397.597474,-4737.318029,-75843.454302,-6661.853478
397.600116,1036.288319,-75843.454302,-3108.864956
397.602758,-3997.112087,-73851.606007,-9770.718434
397.605400,-3997.112087,-74464.482406,-5477.523971
397.608042,-3849.070898,-75690.235202,-14359.995275
397.610684,-7254.018232,-77682.083497,-0.000000
397.613326,-6217.729913,-76149.892501,-7105.977043
397.615968,-8438.347739,-75690.235202,2812.782580
397.618610,3997.112087,-76609.549800,-2516.700203
397.621252,-3404.947333,-74924.139704,-148.041188
397.623895,-4737.318029,-75843.454302,2960.823768
397.626537,-1480.411884,-75230.577904,-6217.729913
397.629179,-7550.100608,-74770.920605,-12139.377449
397.631821,-2072.576638,-77069.207099,-12139.377449
397.634463,-6069.688724,-72932.291410,-14359.995275
397.637105,-3552.988522,-72166.195912,-6069.688724
397.639747,3701.029710,-72779.072310,4589.276840
397.642389,-5921.647536,-74770.920605,5329.482782
397.645031,-5181.441594,-77222.426198,-10362.883188
397.647673,-8586.388927,-77375.645298,-296.082377
397.650315,-2072.576638,-74924.139704,-3701.029710
397.652957,-3552.988522,-70787.224015,7402.059420
397.655600,-740.205942,-70480.785816,6217.729913
397.658242,-4885.359217,-75843.454302,6365.771101
397.660874,-2960.823768,-77528.864398,-592.164754
397.663507,-2960.823768,-75843.454302,-3256.906145
397.666139,-3404.947333,-72779.072310,6069.688724
397.668772,-1036.288319,-71553.319513,6809.894666
397.671404,-4589.276840,-73085.510509,6513.812290
397.674037,-3701.029710,-74311.263306,4293.194464
397.676669,444.123565,-79061.055394,3849.070898
397.679302,-1776.494261,-72472.634111,10955.047942
397.681934,-148.041188,-73545.167808,5033.400406
397.684567,-2664.741391,-67263.184724,-7254.018232
397.687199,-888.247130,-75383.797003,4145.153275
397.689832,-8734.430116,-72319.415011,-29460.196492
397.692465,-4737.318029,-75690.235202,7105.977043
397.695097,-2072.576638,-76915.987999,1036.288319
397.697730,-8438.347739,-75077.358804,-9918.759623
397.700362,-5033.400406,-74464.482406,25759.166782
397.702995,1480.411884,-75077.358804,592.164754
397.705627,-10807.006753,-72625.853210,4589.276840
397.708260,148.041188,-73085.510509,11991.336260
397.710892,-4885.359217,-76456.330700,7254.018232
397.713525,-3552.988522,-75077.358804,22650.301825
397.716157,-3701.029710,-75383.797003,3256.906145
397.718790,-7402.059420,-71400.100414,7550.100608
397.721422,1036.288319,-75537.016103,11251.130318
397.724055,-11547.212695,-74004.825107,-3552.988522
397.726687,2072.576638,-75230.577904,5033.400406
397.729320,-6809.894666,-74617.701505,-888.247130
397.731953,-0.000000,-74770.920605,2664.741391
397.734585,-4145.153275,-74158.044206,5773.606348
397.737218,-6365.771101,-72166.195912,2960.823768
397.739850,-1036.288319,-73851.606007,10955.047942
397.742483,-9918.759623,-76149.892501,5181.441594
397.745115,-1924.535449,-78754.617194,-3997.112087
397.747748,-4145.153275,-75230.577904,-10955.047942
397.750380,-1332.370696,-72166.195912,-12139.377449
397.753013,-4885.359217,-70327.566716,-444.123565
397.755645,-2960.823768,-73085.510509,-4737.318029
397.758278,-2516.700203,-76762.768900,-10807.006753
397.760910,-4145.153275,-77682.083497,-4885.359217
397.763543,-2664.741391,-74770.920605,-6217.729913
397.766168,-6513.812290,-74158.044206,-3552.988522
397.768792,-3997.112087,-73391.948708,-1628.453072
397.771416,-4441.235652,-73698.386908,-7698.141797
397.774040,-4145.153275,-74464.482406,-5181.441594
397.776664,-3701.029710,-75996.673402,-9326.594869
397.779288,-6365.771101,-74617.701505,-7402.059420
397.781912,-3108.864956,-69408.252119,-10658.965565
397.784536,-1480.411884,-75230.577904,9030.512492
397.787160,-6365.771101,-74311.263306,8734.430116
397.789784,-1332.370696,-76609.549800,4589.276840
397.792408,-8142.265362,-78907.836294,-24130.713709
397.795032,-2812.782580,-73391.948708,4737.318029
397.797657,1924.535449,-72779.072310,14656.077652
397.800281,-7105.977043,-75077.358804,-15692.365970
397.802905,-6513.812290,-73238.729609,-25759.166782
397.805529,444.123565,-76303.111601,-11399.171507
397.808153,-10658.965565,-76762.768900,-19985.560434
397.810777,-296.082377,-73238.729609,-11695.253884
397.813401,-3256.906145,-75690.235202,-9326.594869
397.816025,-6513.812290,-72166.195912,-5477.523971
397.818649,-3552.988522,-75383.797003,-3404.947333
397.821273,-5181.441594,-75690.235202,-1332.370696
397.823897,-4885.359217,-75383.797003,6217.729913
397.826522,-5921.647536,-75383.797003,-5625.565159
397.829146,-5329.482782,-72932.291410,-4737.318029
397.831770,-592.164754,-76762.768900,-13323.706956
397.834394,-5329.482782,-73085.510509,-15248.242405
397.837018,-4145.153275,-74311.263306,-6661.853478
397.839642,1628.453072,-74004.825107,1628.453072
397.842266,-3997.112087,-73085.510509,4441.235652
397.844890,-5329.482782,-74311.263306,3701.029710
397.847514,-6217.729913,-75996.673402,1480.411884
397.850138,-6069.688724,-75230.577904,-0.000000
397.852762,-5181.441594,-74158.044206,4737.318029
397.855386,-2516.700203,-71706.538613,13027.624579
397.858011,-4589.276840,-74464.482406,5921.647536
397.860635,-3997.112087,-76149.892501,4737.318029
397.863259,-3701.029710,-75537.016103,-3256.906145
397.865883,-1184.329507,-74311.263306,3701.029710
397.868507,-3108.864956,-72779.072310,7550.100608
397.871123,-3849.070898,-72012.976812,10214.842000
397.873740,-4885.359217,-74158.044206,8734.430116
397.876356,4441.235652,-74004.825107,3404.947333
397.878973,-3404.947333,-72472.634111,-888.247130
397.881589,-1036.288319,-74311.263306,8290.306550
397.884206,-5033.400406,-73085.510509,9326.594869
397.886822,-6513.812290,-71706.538613,19985.560434
397.889439,1924.535449,-77988.521696,10066.800811
397.892055,-13323.706956,-72779.072310,-10362.883188
397.894672,-7105.977043,-74770.920605,2516.700203
397.897288,-888.247130,-76915.987999,16136.489536
397.899905,-4293.194464,-74004.825107,9178.553681
397.902521,-2516.700203,-75843.454302,12583.501014
397.905137,-6809.894666,-67876.061123,6661.853478
397.907754,148.041188,-78754.617194,15100.201217
397.910370,-3256.906145,-74770.920605,10214.842000
397.912987,-1480.411884,-77682.083497,11103.089130
397.915603,-13323.706956,-73238.729609,6365.771101
397.918220,-2664.741391,-73545.167808,6957.935855
397.920836,-2812.782580,-74158.044206,1036.288319
397.923453,-6661.853478,-74617.701505,592.164754
397.926069,444.123565,-75843.454302,-2072.576638
397.928686,-5477.523971,-74617.701505,2220.617826
397.931302,1776.494261,-75077.358804,6957.935855
397.933919,-7846.182985,-73238.729609,14359.995275
397.936535,296.082377,-72625.853210,17172.777854
397.939151,-6365.771101,-76149.892501,148.041188
397.941768,-5625.565159,-79367.493593,-14656.077652
397.944384,-2220.617826,-76762.768900,-16136.489536
397.947001,1924.535449,-71553.319513,-13175.665768
397.949617,-6809.894666,-68029.280222,-2220.617826
397.952234,-3552.988522,-72166.195912,-3849.070898
397.954850,1332.370696,-79673.931792,-10807.006753
397.957467,-8438.347739,-76609.549800,-5477.523971
397.960083,4145.153275,-76456.330700,-1924.535449
397.962700,-8438.347739,-71859.757712,-4885.359217
397.965316,-1776.494261,-73391.948708,-4145.153275
397.967933,-3404.947333,-73698.386908,-8290.306550
397.970549,-4737.318029,-75996.673402,-11547.212695
397.973166,-2368.659014,-76609.549800,-7402.059420
397.975773,-9030.512492,-71246.881314,-9622.677246
397.978380,-4145.153275,-75690.235202,11103.089130
397.980988,-6217.729913,-72932.291410,13175.665768
397.983595,592.164754,-73545.167808,3256.906145
397.986202,-9474.636058,-78294.959896,-26647.413912
397.988810,-1332.370696,-74464.482406,-1332.370696
397.991417,-592.164754,-75843.454302,6957.935855
397.994024,-9622.677246,-69101.813920,16876.695478
397.996632,3552.988522,-77528.864398,444.123565
397.999239,-13027.624579,-77528.864398,-7994.224174
398.001846,296.082377,-76303.111601,-16284.530724
398.004454,-7846.182985,-76149.892501,-8290.306550
398.007061,-4441.235652,-73391.948708,2072.576638
398.009668,-6661.853478,-76915.987999,2368.659014
398.012276,-8142.265362,-73851.606007,444.123565
398.014883,592.164754,-76609.549800,-444.123565
398.017490,-7846.182985,-76609.549800,-7402.059420
398.020098,-2812.782580,-74311.263306,-10510.924376
398.022705,-5033.400406,-74311.263306,-8290.306550
398.025312,-2812.782580,-72012.976812,-13619.789333
398.027920,-8882.471304,-72625.853210,-8734.430116
398.030527,1184.329507,-74311.263306,-3404.947333
398.033134,-3849.070898,-74770.920605,1036.288319
398.035742,-4293.194464,-75537.016103,3997.112087
398.038349,-6513.812290,-74004.825107,3108.864956
398.040956,-7994.224174,-75996.673402,2960.823768
398.043564,-148.041188,-74617.701505,3849.070898
398.046171,-3256.906145,-71246.881314,5329.482782
398.048778,2368.659014,-74311.263306,6513.812290
398.051386,-3404.947333,-76456.330700,-3404.947333
398.053993,-6069.688724,-75077.358804,1036.288319
398.056600,-1036.288319,-74158.044206,2516.700203
398.059208,-3256.906145,-72472.634111,4589.276840
398.061815,-4145.153275,-72779.072310,9030.512492
398.064422,-4293.194464,-74158.044206,4145.153275
398.067030,-6513.812290,-76762.768900,8734.430116
398.069637,-5921.647536,-77222.426198,7846.182985
398.072244,-2072.576638,-70634.004916,-8142.265362
398.074852,-7550.100608,-74311.263306,-4293.194464
398.077459,-5033.400406,-71706.538613,-22502.260637
398.080059,-148.041188,-71859.757712,18505.148550
398.082660,-2664.741391,-75537.016103,-3108.864956
398.085260,-8882.471304,-73545.167808,-14952.160028
398.087861,-2220.617826,-76149.892501,-8438.347739
398.090461,-7254.018232,-70174.347617,-9030.512492
398.093062,2664.741391,-73698.386908,16136.489536
398.095662,-6809.894666,-69101.813920,4737.318029
398.098263,-1184.329507,-73851.606007,8586.388927
398.100863,2368.659014,-74924.139704,-1036.288319
398.103464,-8290.306550,-74158.044206,8290.306550
398.106064,-6069.688724,-72472.634111,-3108.864956
398.108665,-1184.329507,-71246.881314,8142.265362
398.111265,-1036.288319,-74464.482406,-3552.988522
398.113866,-1480.411884,-73085.510509,-3552.988522
398.116467,-2220.617826,-77222.426198,-0.000000
398.119067,-6661.853478,-74311.263306,-444.123565
398.121668,-10066.800811,-73698.386908,16284.530724
398.124268,1480.411884,-74158.044206,11991.336260
398.126869,-4293.194464,-74924.139704,13915.871710
398.129469,-5329.482782,-77375.645298,-8882.471304
398.132070,-4441.235652,-76149.892501,-22058.137072
398.134670,2812.782580,-72472.634111,-17320.819043
398.137271,-3256.906145,-69101.813920,-8586.388927
398.139871,-7402.059420,-70940.443115,-5921.647536
398.142472,-5329.482782,-74924.139704,-5329.482782
398.145072,-2516.700203,-77835.302597,-1480.411884
398.147673,-2368.659014,-77375.645298,-5033.400406
398.150273,-5921.647536,-73238.729609,-1332.370696
398.152874,-4885.359217,-73545.167808,-5921.647536
398.155474,-1332.370696,-72012.976812,-11547.212695
398.158075,-5329.482782,-72625.853210,-11991.336260
398.160675,-148.041188,-73698.386908,-12287.418637
398.163183,-8438.347739,-75383.797003,-10807.006753
398.165691,444.123565,-77835.302597,13619.789333
398.168199,296.082377,-71093.662214,-10214.842000
398.170707,-9622.677246,-73698.386908,-19245.354492
398.173215,1628.453072,-73698.386908,-1628.453072
398.175722,-6957.935855,-75537.016103,-13175.665768
398.178230,-6809.894666,-71553.319513,-20873.807564
398.180738,-2516.700203,-74158.044206,-4145.153275
398.183246,-7698.141797,-70480.785816,-17172.777854
398.185754,-2368.659014,-71553.319513,-25167.002028
398.188262,-5477.523971,-71400.100414,-10066.800811
398.190770,-1332.370696,-71859.757712,-20725.766376
398.193278,-2368.659014,-70021.128517,-7105.977043
398.195785,-2664.741391,-73545.167808,-3404.947333
398.198293,-3997.112087,-74617.701505,-2368.659014
398.200801,-6069.688724,-77222.426198,3552.988522
398.203309,1036.288319,-77069.207099,-8142.265362
398.205817,-10658.965565,-71553.319513,-9474.636058
398.208325,740.205942,-72932.291410,-9178.553681
398.210833,-12583.501014,-72166.195912,-13323.706956
398.213341,5181.441594,-73545.167808,2220.617826
398.215848,-5329.482782,-75383.797003,-4293.194464
398.218356,-7402.059420,-76149.892501,-5181.441594
398.220864,-2664.741391,-75843.454302,6069.688724
398.223372,-3404.947333,-73698.386908,13619.789333
398.225880,-5921.647536,-71859.757712,12731.542202
398.228388,-2368.659014,-75537.016103,10955.047942
398.230896,-6661.853478,-77222.426198,-2220.617826
398.233404,-2812.782580,-76149.892501,-7254.018232
398.235911,-2812.782580,-72625.853210,-444.123565
398.238419,-1924.535449,-72472.634111,3552.988522
398.240927,-3404.947333,-73085.510509,6513.812290
398.243435,-3552.988522,-74770.920605,9178.553681
398.245943,-5181.441594,-77222.426198,7846.182985
398.248451,-6365.771101,-75996.673402,8586.388927
398.250959,-8586.388927,-75383.797003,6809.894666
398.253467,-2516.700203,-69714.690318,-9622.677246
398.255974,-5773.606348,-71706.538613,-14063.912898
398.258482,-2664.741391,-71859.757712,14952.160028
398.260990,-148.041188,-75690.235202,5329.482782
398.263518,-9326.594869,-75077.358804,-11103.089130
398.266046,-4145.153275,-72012.976812,8882.471304
398.268573,2812.782580,-78448.178995,26795.455100
398.271101,-8882.471304,-68642.156621,-6809.894666
398.273629,4145.153275,-77222.426198,28423.908173
398.276157,-8438.347739,-78448.178995,13027.624579
398.278685,-13619.789333,-74004.825107,8734.430116
398.281212,-3404.947333,-75230.577904,4441.235652
398.283740,-6069.688724,-73238.729609,2960.823768
398.286268,-3108.864956,-72779.072310,444.123565
398.288796,-3552.988522,-74004.825107,-2220.617826
398.291324,-2368.659014,-74770.920605,-3256.906145
398.293851,-5033.400406,-75383.797003,-1332.370696
398.296379,-6217.729913,-74464.482406,3404.947333
398.298907,-592.164754,-74311.263306,12583.501014
398.301435,-8290.306550,-74464.482406,18949.272115
398.303962,-2516.700203,-75230.577904,2516.700203
398.306490,-7698.141797,-75537.016103,-8438.347739
398.309018,148.041188,-75690.235202,-27091.537477
398.311546,-6809.894666,-72012.976812,-13767.830521
398.314074,-740.205942,-71246.881314,-8734.430116
398.316601,-2072.576638,-72319.415011,-3404.947333
398.319129,-5477.523971,-77069.207099,1628.453072
398.321657,-6217.729913,-78907.836294,-3108.864956
398.324185,-3256.906145,-76456.330700,-2220.617826
398.326712,592.164754,-74158.044206,-3256.906145
398.329240,-8882.471304,-71553.319513,-6809.894666
398.331768,-444.123565,-72472.634111,-12435.459826
398.334296,-4737.318029,-77988.521696,-19097.313304
398.336824,-3552.988522,-75383.797003,-7105.977043
398.339351,-5033.400406,-80746.465489,11695.253884
398.341879,-5033.400406,-73851.606007,16728.654289
398.344407,-444.123565,-76915.987999,-13619.789333
398.346935,-7402.059420,-73545.167808,-592.164754
398.349462,3256.906145,-76762.768900,3552.988522
398.351990,-13027.624579,-74924.139704,-9326.594869
398.354518,-7846.182985,-72779.072310,9178.553681
398.357046,1776.494261,-74158.044206,-16284.530724
398.359574,-9918.759623,-74617.701505,-12435.459826
398.362101,5033.400406,-76762.768900,-16432.571912
398.364644,-10510.924376,-71093.662214,-17468.860231
398.367187,5625.565159,-72932.291410,-2516.700203
398.369729,-6069.688724,-74004.825107,-5921.647536
398.372272,-9770.718434,-75843.454302,888.247130
398.374814,-0.000000,-77682.083497,-6661.853478
398.377357,-11251.130318,-73238.729609,-6069.688724
398.379900,1776.494261,-75383.797003,-11991.336260
398.382442,-10362.883188,-71553.319513,-12731.542202
398.384985,-1628.453072,-73238.729609,-7550.100608
398.387527,-9030.512492,-73698.386908,-4293.194464
398.390070,3701.029710,-74311.263306,-0.000000
398.392613,-2072.576638,-76915.987999,4589.276840
398.395155,-12435.459826,-74158.044206,10066.800811
398.397698,1184.329507,-73391.948708,15396.283594
398.400240,-10066.800811,-74004.825107,11843.295072
398.402783,3849.070898,-76303.111601,8142.265362
398.405326,-10658.965565,-76456.330700,-3404.947333
398.407868,-1924.535449,-74464.482406,-4589.276840
398.410411,-2072.576638,-71400.100414,-1628.453072
398.412953,-6957.935855,-71859.757712,4885.359217
398.415496,-444.123565,-73391.948708,6069.688724
398.418039,-6217.729913,-78448.178995,11103.089130
398.420581,-2812.782580,-80133.589091,13915.871710
398.423124,-10066.800811,-75230.577904,2812.782580
398.425667,-444.123565,-77222.426198,15100.201217
398.428209,-1776.494261,-75996.673402,-2368.659014
398.430752,-7698.141797,-74924.139704,-5477.523971
398.433294,3552.988522,-69714.690318,30052.361245
398.435837,-9770.718434,-77528.864398,-32569.061448
398.438380,-3108.864956,-73545.167808,16432.571912
398.440922,5181.441594,-80133.589091,-2812.782580
398.443465,-16876.695478,-68029.280222,6365.771101
398.446007,21169.889941,-76456.330700,25315.043216
398.448550,-20281.642811,-71093.662214,1184.329507
398.451093,8290.306550,-76915.987999,15248.242405
398.453635,-8438.347739,-77222.426198,-2220.617826
398.456178,-10066.800811,-70021.128517,-1332.370696
398.458720,9918.759623,-74617.701505,7846.182985
398.461263,-16728.654289,-70021.128517,-2220.617826
398.463806,8882.471304,-76149.892501,5181.441594
398.466360,-10066.800811,-75230.577904,3997.112087
398.468914,-3256.906145,-74617.701505,10807.006753
398.471469,296.082377,-76609.549800,15988.448347
398.474023,-6809.894666,-73851.606007,11251.130318
398.476578,-1184.329507,-75077.358804,-3997.112087
398.479132,-9474.636058,-75230.577904,-16432.571912
398.481686,4293.194464,-72319.415011,-25759.166782
398.484241,-12139.377449,-71859.757712,-14211.954086
398.486795,-4293.194464,-72319.415011,-7105.977043
398.489350,-3997.112087,-74770.920605,-444.123565
398.491904,-6513.812290,-75690.235202,3849.070898
398.494459,-2812.782580,-75843.454302,-3849.070898
398.497013,-6513.812290,-76456.330700,-3701.029710
398.499567,1628.453072,-74004.825107,-7254.018232
398.502122,-6365.771101,-72472.634111,-6957.935855
398.504676,-1332.370696,-75690.235202,-7254.018232
398.507231,-592.164754,-75537.016103,-3256.906145
398.509785,-6513.812290,-72472.634111,-15692.365970
398.512339,-4441.235652,-74617.701505,-5181.441594
398.514894,-3552.988522,-76303.111601,31828.855506
398.517448,-5033.400406,-75843.454302,-17320.819043
398.520003,-10955.047942,-76456.330700,-0.000000
398.522557,5181.441594,-76456.330700,18357.107362
398.525111,-3108.864956,-76149.892501,-2368.659014
398.527666,-11399.171507,-70634.004916,-11251.130318
398.530220,4441.235652,-81359.341888,-9770.718434
398.532775,-16728.654289,-74311.263306,-10362.883188
398.535329,7994.224174,-76915.987999,3108.864956
398.537883,-7698.141797,-72166.195912,-5477.523971
398.540438,-740.205942,-75690.235202,3701.029710
398.542992,-2960.823768,-76762.768900,-9770.718434
398.545547,-11251.130318,-74158.044206,-11991.336260
398.548101,2220.617826,-76303.111601,-6957.935855
398.550656,-10362.883188,-71093.662214,-7254.018232
398.553210,740.205942,-72932.291410,-7402.059420
398.555764,-4441.235652,-72779.072310,-1036.288319
398.558319,-1628.453072,-75077.358804,-1332.370696
398.560873,-8290.306550,-77069.207099,-9030.512492
398.563428,-11251.130318,-73545.167808,2664.741391
398.565982,1480.411884,-74617.701505,15396.283594
398.568544,-7105.977043,-71553.319513,16876.695478
398.571105,-592.164754,-75537.016103,15396.283594
398.573667,-5181.441594,-77528.864398,1480.411884
398.576229,-2812.782580,-76915.987999,-6513.812290
398.578790,-4293.194464,-73698.386908,-4441.235652
398.581352,-2072.576638,-70021.128517,1184.329507
398.583914,-4885.359217,-72012.976812,5033.400406
398.586475,-5181.441594,-74004.825107,8586.388927
398.589037,-2072.576638,-76303.111601,6957.935855
398.591599,-3997.112087,-79673.931792,16580.613101
398.594160,-5181.441594,-74004.825107,8882.471304
398.596722,-5625.565159,-73238.729609,10955.047942
398.599284,2072.576638,-73545.167808,13027.624579
398.601845,-5329.482782,-72012.976812,-1628.453072
398.604407,-4441.235652,-71553.319513,-5921.647536
398.606969,-148.041188,-80899.684589,-14063.912898
398.609530,-11399.171507,-75077.358804,-444.123565
398.612092,6661.853478,-75077.358804,12139.377449
398.614654,-14063.912898,-66650.308326,12879.583391
398.617215,2368.659014,-71246.881314,6957.935855
398.619777,-8142.265362,-78448.178995,-740.205942
398.622339,-3849.070898,-77835.302597,2072.576638
398.624900,2368.659014,-74004.825107,-2960.823768
398.627462,-5921.647536,-70940.443115,6069.688724
398.630023,1480.411884,-72625.853210,2368.659014
398.632585,-10510.924376,-72319.415011,2516.700203
398.635147,-0.000000,-76915.987999,3404.947333
398.637708,-8882.471304,-75690.235202,7994.224174
398.640270,-2812.782580,-74617.701505,17912.983796
398.642832,-1776.494261,-77069.207099,3552.988522
398.645393,-11399.171507,-73238.729609,-6809.894666
398.647955,4441.235652,-75690.235202,-17912.983796
398.650517,-12139.377449,-71400.100414,-18209.066173
398.653078,-0.000000,-73545.167808,-11103.089130
398.655640,-7402.059420,-73698.386908,-6217.729913
398.658202,-5773.606348,-75537.016103,1628.453072
398.660763,-3997.112087,-76915.987999,-740.205942
398.663325,-6365.771101,-75230.577904,888.247130
398.665887,2220.617826,-75843.454302,-6513.812290
398.668448,-8142.265362,-74311.263306,-10510.924376
398.671015,-2812.782580,-72166.195912,-12287.418637
398.673582,-2516.700203,-75077.358804,-4885.359217
398.676149,-592.164754,-77528.864398,-21021.848753
398.678716,-6513.812290,-76762.768900,9770.718434
398.681283,-9474.636058,-75383.797003,-23242.466579
398.683850,-3997.112087,-73851.606007,6217.729913
398.686417,-888.247130,-76149.892501,4589.276840
398.688984,-9770.718434,-74770.920605,-19097.313304
398.691552,-1776.494261,-78294.959896,22502.260637
398.694119,-5625.565159,-73238.729609,-21614.013506
398.696686,-10807.006753,-68948.594820,-23390.507767
398.699253,8882.471304,-73085.510509,-16728.654289
398.701820,-12287.418637,-70327.566716,-18949.272115
398.704387,-2368.659014,-71859.757712,-3997.112087
398.706954,-5033.400406,-74924.139704,-7550.100608
398.709521,-3997.112087,-75077.358804,-6217.729913
398.712088,-3849.070898,-77835.302597,-3997.112087
398.714655,-9178.553681,-74770.920605,-13323.706956
398.717222,-1036.288319,-73085.510509,-5921.647536
398.719789,-6069.688724,-72012.976812,-3701.029710
398.722356,-3256.906145,-72319.415011,-3404.947333
398.724923,-2516.700203,-76456.330700,-5625.565159
398.727490,-5033.400406,-75537.016103,-5181.441594
398.730057,-5625.565159,-75230.577904,5181.441594
398.732624,296.082377,-72472.634111,16136.489536
398.735191,-1628.453072,-73851.606007,18949.272115
398.737758,-6661.853478,-77528.864398,10510.924376
398.740325,-2960.823768,-77835.302597,296.082377
398.742892,-5477.523971,-75077.358804,-7105.977043
398.745459,-1184.329507,-72472.634111,-3701.029710
398.748026,-1332.370696,-70021.128517,1332.370696
398.750593,-4885.359217,-72472.634111,4885.359217
398.753160,-5625.565159,-72166.195912,5773.606348
398.755727,-3108.864956,-75383.797003,4737.318029
398.758294,-2072.576638,-76303.111601,7846.182985
398.760861,-3997.112087,-77682.083497,6217.729913
398.763428,-11695.253884,-73851.606007,-14063.912898
398.765995,1480.411884,-71859.757712,22946.384202
398.768562,-8290.306550,-71093.662214,12879.583391
398.771129,-888.247130,-76609.549800,-592.164754
398.773698,-1036.288319,-79061.055394,-8734.430116
398.776268,-6809.894666,-75996.673402,15100.201217
398.778838,1628.453072,-74464.482406,10955.047942
398.781408,-12583.501014,-72166.195912,17912.983796
398.783978,-1184.329507,-79061.055394,12287.418637
398.786547,-7698.141797,-77375.645298,1036.288319
398.789117,-148.041188,-77222.426198,-5329.482782
398.791687,-5477.523971,-74004.825107,-1036.288319
398.794257,-5921.647536,-72012.976812,4737.318029
398.796826,148.041188,-74770.920605,5921.647536
398.799396,-6957.935855,-73698.386908,13323.706956
398.801966,3256.906145,-75077.358804,9178.553681
398.804536,-11547.212695,-76915.987999,13619.789333
398.807105,-0.000000,-77682.083497,-0.000000
398.809675,-6957.935855,-75383.797003,-14063.912898
398.812245,-1924.535449,-73085.510509,-15100.201217
398.814815,-5921.647536,-69561.471218,-10510.924376
398.817384,-3256.906145,-72012.976812,-11695.253884
398.819954,-4737.318029,-75230.577904,-6069.688724
398.822524,-5625.565159,-78141.740796,-444.123565
398.825094,-5033.400406,-75996.673402,-2664.741391
398.827664,-4293.194464,-74617.701505,592.164754
398.830233,2516.700203,-76303.111601,-7402.059420
398.832803,-7846.182985,-72319.415011,-13027.624579
398.835373,-1776.494261,-71706.538613,-17468.860231
398.837943,2072.576638,-72932.291410,-3108.864956
398.840512,-4293.194464,-73085.510509,4145.153275
398.843082,1628.453072,-74770.920605,17172.777854
398.845652,-2516.700203,-76456.330700,-16136.489536
398.848222,-4441.235652,-73545.167808,3849.070898
398.850791,3552.988522,-74158.044206,-15248.242405
398.853361,-17172.777854,-72319.415011,-19689.478057
398.855931,7698.141797,-72625.853210,-7402.059420
398.858501,-15100.201217,-76609.549800,-16876.695478
398.861071,4293.194464,-72779.072310,-12435.459826
398.863640,444.123565,-74924.139704,-19837.519246
398.866210,-6957.935855,-70021.128517,-10214.842000
398.868780,7994.224174,-77988.521696,-2960.823768
398.871350,-20725.766376,-73851.606007,-8882.471304
398.873919,5033.400406,-75537.016103,-1184.329507
398.876491,-8438.347739,-75996.673402,-8734.430116
398.879063,-6365.771101,-75077.358804,-7254.018232
398.881634,-2220.617826,-74464.482406,-1184.329507
398.884206,-12879.583391,-71706.538613,-3404.947333
398.886778,3404.947333,-73238.729609,-5033.400406
398.889349,-6809.894666,-76915.987999,-3849.070898
398.891921,-6069.688724,-73391.948708,4589.276840
398.894493,-5181.441594,-73391.948708,14211.954086
398.897064,-3849.070898,-72779.072310,16284.530724
398.899636,-5329.482782,-77222.426198,14508.036463
398.902208,-1628.453072,-77682.083497,-1628.453072
398.904779,-2664.741391,-74770.920605,-5625.565159
398.907351,-3256.906145,-72472.634111,-1184.329507
398.909923,-1480.411884,-70327.566716,1184.329507
398.912494,-3404.947333,-74770.920605,5181.441594
398.915066,-5329.482782,-79673.931792,16432.571912
398.917637,-9030.512492,-77069.207099,7105.977043
398.920209,-4145.153275,-80440.027290,21762.054695
398.922781,1332.370696,-79367.493593,1628.453072
398.925352,-14804.118840,-74158.044206,-8142.265362
398.927924,-740.205942,-72779.072310,9178.553681
398.930496,-2072.576638,-72779.072310,2368.659014
398.933067,-12435.459826,-73851.606007,-6069.688724
398.935639,2072.576638,-77682.083497,9326.594869
398.938211,-14804.118840,-77682.083497,12139.377449
398.940782,296.082377,-74311.263306,16432.571912
398.943354,-740.205942,-75077.358804,5773.606348
398.945926,-12287.418637,-73851.606007,2960.823768
398.948497,-444.123565,-78141.740796,-1184.329507
398.951069,-9326.594869,-73085.510509,-8290.306550
398.953641,296.082377,-73545.167808,3701.029710
398.956212,-6809.894666,-72932.291410,6513.812290
398.958784,1480.411884,-72932.291410,15840.407159
398.961356,-2664.741391,-75383.797003,12139.377449
398.963927,-9770.718434,-75996.673402,15396.283594
398.966499,-1924.535449,-77988.521696,-592.164754
398.969071,-9030.512492,-77528.864398,-17912.983796
398.971642,1480.411884,-73851.606007,-24870.919651
398.974214,-9918.759623,-69561.471218,-9918.759623
398.976786,1332.370696,-69255.033019,-9918.759623
398.979359,-6957.935855,-73391.948708,-1480.411884
398.981932,-6809.894666,-77835.302597,-1036.288319
398.984506,-3256.906145,-78448.178995,-5477.523971
398.987079,-5033.400406,-75230.577904,296.082377
398.989653,-444.123565,-72625.853210,-5477.523971
398.992226,-6069.688724,-69714.690318,-11843.295072
398.994800,5477.523971,-71553.319513,-18801.230927
398.997373,-5625.565159,-73851.606007,-15100.201217
398.999947,444.123565,-73851.606007,8142.265362
399.002520,3997.112087,-77528.864398,34197.514520
399.005094,-17616.901420,-74770.920605,-30200.402434
399.007667,4885.359217,-78448.178995,-2220.617826
399.010240,-3701.029710,-74617.701505,25167.002028
399.012814,-2664.741391,-74924.139704,-11991.336260
399.015387,-4145.153275,-77528.864398,-6365.771101
399.017961,-1628.453072,-79673.931792,-15840.407159
399.020534,-3849.070898,-70327.566716,-27091.537477
399.023108,-2368.659014,-69101.813920,-2664.741391
399.025681,-592.164754,-72166.195912,-8882.471304
399.028255,-6957.935855,-74464.482406,-2072.576638
399.030828,2368.659014,-77835.302597,-11399.171507
399.033402,-11695.253884,-72625.853210,-12583.501014
399.035975,-1480.411884,-77069.207099,-3552.988522
399.038549,-13027.624579,-74158.044206,-7402.059420
399.041122,-6365.771101,-71093.662214,-740.205942
399.043695,6513.812290,-74617.701505,-148.041188
399.046269,-14359.995275,-74770.920605,-3701.029710
399.048842,-4441.235652,-75230.577904,3108.864956
399.051416,-5477.523971,-75077.358804,12583.501014
399.053989,-2220.617826,-72932.291410,18505.148550
399.056563,-5033.400406,-74924.139704,19097.313304
399.059136,-5033.400406,-76915.987999,9178.553681
399.061710,-5181.441594,-76762.768900,-6661.853478
399.064283,-2220.617826,-73698.386908,-4293.194464
399.066857,-5477.523971,-70327.566716,-1332.370696
399.069430,-1924.535449,-69255.033019,5329.482782
399.072003,-2072.576638,-71400.100414,9178.553681
399.074577,-1480.411884,-74924.139704,2368.659014
399.077150,-3108.864956,-75537.016103,1036.288319
399.079724,-3552.988522,-77069.207099,-3404.947333
399.082299,-3997.112087,-73085.510509,-4145.153275
399.084873,4589.276840,-74004.825107,7846.182985
399.087448,-9918.759623,-67263.184724,-444.123565
399.090023,1776.494261,-71246.881314,-9918.759623
399.092598,-5921.647536,-74770.920605,10066.800811
399.095172,-2960.823768,-73085.510509,1776.494261
399.097747,-4145.153275,-79367.493593,20577.725188
399.100322,-6069.688724,-74924.139704,19541.436869
399.102897,5329.482782,-77069.207099,8438.347739
399.105471,-7254.018232,-74617.701505,2220.617826
399.108046,2516.700203,-77069.207099,-11695.253884
399.110621,-7550.100608,-72319.415011,-1776.494261
399.113195,-1332.370696,-74770.920605,3256.906145
399.115770,-11251.130318,-71246.881314,19541.436869
399.118345,1332.370696,-75230.577904,20281.642811
399.120920,-3701.029710,-76609.549800,13175.665768
399.123494,-9030.512492,-77835.302597,-9770.718434
399.126069,-1924.535449,-77988.521696,-25463.084405
399.128644,1332.370696,-73545.167808,-20133.601622
399.131219,-5329.482782,-70174.347617,-13619.789333
399.133793,-5329.482782,-70327.566716,-6069.688724
399.136368,-2368.659014,-76456.330700,-3552.988522
399.138943,-7846.182985,-77682.083497,3108.864956
399.141518,740.205942,-77835.302597,-3108.864956
399.144092,-10362.883188,-73851.606007,-2368.659014
399.146667,148.041188,-73085.510509,-3552.988522
399.149242,-6365.771101,-70940.443115,-13027.624579
399.151817,-5921.647536,-72472.634111,-19393.395680
399.154391,-2812.782580,-78601.398095,-1924.535449
399.156966,-7402.059420,-72932.291410,-14656.077652
399.159541,148.041188,-71859.757712,21762.054695
399.162116,-296.082377,-77682.083497,-36122.049970
399.164690,-14063.912898,-69714.690318,5033.400406
399.167265,9622.677246,-76149.892501,9326.594869
399.169840,-15988.448347,-72932.291410,-24574.837274
399.172415,4885.359217,-76456.330700,-8290.306550
399.174989,6365.771101,-79367.493593,-14804.118840
399.177564,-12139.377449,-67263.184724,-14952.160028
399.180139,7846.182985,-74770.920605,1628.453072
399.182714,-13323.706956,-71706.538613,-7550.100608
399.185287,2072.576638,-77375.645298,-740.205942
399.187861,-13323.706956,-74464.482406,-18061.024985
399.190435,-0.000000,-74770.920605,-7402.059420
399.193009,3404.947333,-76456.330700,1776.494261
399.195582,-13619.789333,-72779.072310,-5625.565159
399.198156,13027.624579,-74311.263306,-3701.029710
399.200730,-15248.242405,-74464.482406,-2664.741391
399.203304,-1184.329507,-72472.634111,2220.617826
399.205877,-4145.153275,-75077.358804,14508.036463
399.208451,-2812.782580,-73238.729609,13027.624579
399.211025,-1332.370696,-76303.111601,17616.901420
399.213599,-5625.565159,-76456.330700,4145.153275
399.216173,-2812.782580,-75230.577904,-4737.318029
399.218746,-3108.864956,-74158.044206,-4145.153275
399.221320,-2812.782580,-72779.072310,444.123565
399.223894,-1776.494261,-68335.718422,740.205942
399.226468,-1776.494261,-70021.128517,6957.935855
399.229041,-296.082377,-74158.044206,15544.324782
399.231615,-9178.553681,-79214.274493,28423.908173
399.234189,740.205942,-79827.150892,17172.777854
399.236763,-6661.853478,-74158.044206,-13619.789333
399.239336,1628.453072,-74464.482406,10510.924376
399.241910,-4885.359217,-70940.443115,-6217.729913
399.244484,-6217.729913,-73085.510509,23538.548956
399.247058,-592.164754,-77682.083497,2812.782580
399.249631,-13175.665768,-71706.538613,5329.482782
399.252205,5921.647536,-76149.892501,14804.118840
399.254779,-7254.018232,-70634.004916,-3404.947333
399.257353,3404.947333,-74004.825107,4737.318029
399.259926,-6661.853478,-74158.044206,-12731.542202
399.262500,-4145.153275,-74311.263306,-888.247130
399.265074,4145.153275,-75383.797003,-2516.700203
399.267648,-8586.388927,-71400.100414,13027.624579
399.270222,9326.594869,-74924.139704,21910.095883
399.272795,-15100.201217,-73391.948708,15544.324782
399.275369,2516.700203,-77528.864398,-296.082377
399.277943,-6069.688724,-77835.302597,-23242.466579
399.280517,-1924.535449,-74617.701505,-23982.672521
399.283090,-5181.441594,-71400.100414,-14063.912898
399.285664,-5181.441594,-69255.033019,-8882.471304
399.288238,2368.659014,-74158.044206,-5921.647536
399.290811,-6809.894666,-77682.083497,592.164754
399.293385,148.041188,-77682.083497,-3849.070898
399.295958,-7846.182985,-74924.139704,-3404.947333
399.298532,-444.123565,-74464.482406,-4441.235652
399.301105,-8586.388927,-74158.044206,-9326.594869
399.303679,-5921.647536,-72625.853210,-22058.137072
399.306252,148.041188,-75383.797003,-22502.260637
399.308826,-6957.935855,-72625.853210,-14804.118840
399.311399,-5033.400406,-76149.892501,35825.967593
399.313973,-888.247130,-77375.645298,-296.082377
399.316546,-17320.819043,-74464.482406,-20133.601622
399.319120,11547.212695,-75843.454302,33309.267390
399.321693,-13915.871710,-70021.128517,-26795.455100
399.324267,740.205942,-76915.987999,-3701.029710
399.326840,12583.501014,-80746.465489,-13471.748144
399.329414,-22502.260637,-71553.319513,-19985.560434
399.331987,4885.359217,-75690.235202,4145.153275
399.334561,-10066.800811,-73698.386908,-8142.265362
399.337134,-5921.647536,-75077.358804,-1332.370696
399.339708,2516.700203,-77069.207099,-7105.977043
399.342281,-12139.377449,-72012.976812,-12879.583391
399.344855,13323.706956,-76915.987999,-1184.329507
399.347428,-9622.677246,-74464.482406,-9474.636058
399.350001,-4441.235652,-74311.263306,-9326.594869
399.352575,-1036.288319,-73698.386908,3552.988522
399.355148,-8290.306550,-72012.976812,10807.006753
399.357722,1628.453072,-74924.139704,18653.189738
399.360295,-6513.812290,-74617.701505,12583.501014
399.362869,3552.988522,-77835.302597,10362.883188
399.365442,-5033.400406,-77222.426198,1036.288319
399.368016,-11103.089130,-71246.881314,-3404.947333
399.370589,1036.288319,-74158.044206,-3108.864956
399.373162,-5773.606348,-74464.482406,2960.823768
399.375736,-5329.482782,-78754.617194,11695.253884
399.378309,-5329.482782,-74464.482406,6957.935855
399.380882,-1776.494261,-80286.808190,20281.642811
399.383455,-1776.494261,-77682.083497,-14359.995275
399.386029,-10658.965565,-72932.291410,-10955.047942
399.388602,3108.864956,-75383.797003,9770.718434
399.391175,-14508.036463,-68795.375720,-0.000000
399.393749,-2664.741391,-74464.482406,30200.402434
399.396322,-2812.782580,-74617.701505,-2368.659014
399.398895,-10658.965565,-74004.825107,17616.901420
399.401468,7994.224174,-75996.673402,6661.853478
399.404042,-9178.553681,-71553.319513,2960.823768
399.406615,9178.553681,-74311.263306,10362.883188
399.409188,-5773.606348,-73391.948708,-8290.306550
399.411761,-3404.947333,-73545.167808,-3552.988522
399.414335,2516.700203,-74617.701505,-2664.741391
399.416908,-14359.995275,-70940.443115,10658.965565
399.419481,5181.441594,-76149.892501,17320.819043
399.422054,-9178.553681,-74617.701505,15692.365970
399.424628,-5625.565159,-76303.111601,-7698.141797
399.427201,-3552.988522,-76609.549800,-19837.519246
399.429774,888.247130,-74004.825107,-20133.601622
399.432347,-6661.853478,-70787.224015,-15840.407159
399.434921,-5921.647536,-71246.881314,-11251.130318
399.437494,-0.000000,-74004.825107,-5033.400406
399.440067,-5921.647536,-76762.768900,1332.370696
399.442640,1332.370696,-77375.645298,-3849.070898
399.445214,-9474.636058,-75230.577904,-888.247130
399.447787,-2812.782580,-75996.673402,-3552.988522
399.450360,-8882.471304,-70940.443115,-12583.501014
399.452933,-5773.606348,-76609.549800,-5625.565159
399.455507,-8438.347739,-73085.510509,-7550.100608
399.458080,3108.864956,-76149.892501,2220.617826
399.460653,-10807.006753,-74617.701505,-34937.720462
399.463226,-4885.359217,-76303.111601,17320.819043
399.465800,1924.535449,-76915.987999,-22058.137072
399.468373,-21614.013506,-69867.909418,-22058.137072
399.470946,19097.313304,-72779.072310,-13471.748144
399.473518,-24130.713709,-68488.937521,-31976.896694
399.476090,9326.594869,-75230.577904,-6957.935855
399.478662,-5625.565159,-80286.808190,-23834.631332
399.481233,-19245.354492,-70787.224015,-6809.894666
399.483805,10807.006753,-78141.740796,3256.906145
399.486377,-19985.560434,-73698.386908,-9326.594869
399.488949,4145.153275,-75996.673402,-3997.112087
399.491521,-6809.894666,-74004.825107,-4737.318029
399.494092,-4885.359217,-73391.948708,-3108.864956
399.496664,3256.906145,-77069.207099,-8882.471304
399.499236,-8734.430116,-73545.167808,444.123565
399.501808,-2960.823768,-73085.510509,10214.842000
399.504380,-8438.347739,-73851.606007,18653.189738
399.506951,1332.370696,-74924.139704,15100.201217
399.509523,-3108.864956,-77682.083497,12435.459826
399.512095,-1924.535449,-75996.673402,-1184.329507
399.514667,-1332.370696,-74311.263306,296.082377
399.517239,-7105.977043,-72166.195912,-2664.741391
399.519810,-3108.864956,-70940.443115,1036.288319
399.522382,-592.164754,-74464.482406,2960.823768
399.524954,-3701.029710,-73851.606007,12287.418637
399.527526,-1776.494261,-74924.139704,26795.455100
399.530098,-1036.288319,-75690.235202,5181.441594
399.532669,-5625.565159,-74770.920605,-2812.782580
399.535241,3256.906145,-74617.701505,2072.576638
399.537813,-5329.482782,-72625.853210,-9178.553681
399.540385,-7846.182985,-71706.538613,15692.365970
399.542956,2516.700203,-82738.313784,9918.759623
399.545528,-14359.995275,-77682.083497,13323.706956
399.548100,5033.400406,-78907.836294,11695.253884
399.550672,-11843.295072,-71093.662214,11251.130318
399.553244,7846.182985,-75690.235202,10066.800811
399.555815,-2960.823768,-75843.454302,-4145.153275
399.558387,-8290.306550,-74617.701505,-3404.947333
399.560959,2220.617826,-75383.797003,3108.864956
399.563531,-7698.141797,-72932.291410,10658.965565
399.566103,-3256.906145,-75383.797003,18801.230927
399.568674,-5329.482782,-74617.701505,8586.388927
399.571246,-4441.235652,-76609.549800,-5625.565159
399.573818,-1184.329507,-76149.892501,-23982.672521
399.576389,-5773.606348,-70787.224015,-20133.601622
399.578960,592.164754,-72625.853210,-14211.954086
399.581531,-10658.965565,-71706.538613,-5921.647536
399.584102,-2220.617826,-75383.797003,-3997.112087
399.586674,-5921.647536,-77069.207099,2368.659014
399.589245,-592.164754,-75843.454302,-444.123565
399.591816,-5033.400406,-76609.549800,-444.123565
399.594387,-6513.812290,-76303.111601,-296.082377
399.596958,1776.494261,-73085.510509,-10510.924376
399.599529,-4737.318029,-74004.825107,296.082377
399.602100,-740.205942,-75690.235202,-14508.036463
399.604671,-10807.006753,-71246.881314,2516.700203
399.607243,6957.935855,-81818.999186,13027.624579
399.609814,-20281.642811,-73085.510509,-28423.908173
399.612385,7846.182985,-77528.864398,26499.372724
399.614956,8882.471304,-79980.369991,-2960.823768
399.617527,-26203.290347,-68948.594820,-28571.949361
399.620098,13767.830521,-80899.684589,-444.123565
399.622669,-14211.954086,-72932.291410,-21317.931130
399.625240,3997.112087,-76915.987999,2368.659014
399.627811,-3997.112087,-72166.195912,-11547.212695
399.630383,-9474.636058,-73391.948708,592.164754
399.632954,-740.205942,-76762.768900,-1036.288319
399.635525,-6513.812290,-72625.853210,-6513.812290
399.638096,3256.906145,-75843.454302,-2960.823768
399.640667,-8142.265362,-75230.577904,-13027.624579
399.643238,1628.453072,-73085.510509,-6513.812290
399.645809,-10510.924376,-73238.729609,7402.059420
399.648380,-1480.411884,-71400.100414,11695.253884
399.650952,-1184.329507,-75230.577904,20133.601622
399.653523,-8142.265362,-78141.740796,10066.800811
399.656094,-0.000000,-76609.549800,1628.453072
399.658665,-3552.988522,-73545.167808,-1036.288319
399.661236,-444.123565,-70174.347617,-3552.988522
399.663807,-1924.535449,-69867.909418,-2072.576638
399.666378,2072.576638,-70021.128517,-3997.112087
399.668949,-5625.565159,-76762.768900,17172.777854
399.671521,-4885.359217,-76609.549800,10066.800811
399.674092,296.082377,-75230.577904,34641.638086
399.676663,-3997.112087,-77222.426198,-10066.800811
399.679233,-2220.617826,-72012.976812,-5625.565159
399.681804,-1776.494261,-70940.443115,-12731.542202
399.684374,-5921.647536,-68182.499322,4737.318029
399.686945,1332.370696,-78294.959896,8438.347739
399.689516,-9622.677246,-73391.948708,5921.647536
399.692086,-8290.306550,-75383.797003,18209.066173
399.694657,-2368.659014,-73698.386908,7698.141797
399.697227,-5181.441594,-74004.825107,5033.400406
399.699798,-1776.494261,-76456.330700,-3256.906145
399.702368,-5329.482782,-74004.825107,-4589.276840
399.704939,-4885.359217,-74770.920605,10066.800811
399.707509,-2664.741391,-73391.948708,11399.171507
399.710080,1628.453072,-75077.358804,20281.642811
399.712650,-13471.748144,-76149.892501,1184.329507
399.715221,3108.864956,-77222.426198,-13323.706956
399.717792,-1184.329507,-73851.606007,-22206.178260
399.720362,-7402.059420,-71400.100414,-14508.036463
399.722933,148.041188,-71553.319513,-16580.613101
399.725503,-7698.141797,-74004.825107,-6513.812290
399.728074,-2368.659014,-76303.111601,-4885.359217
399.730644,-3256.906145,-75230.577904,-3701.029710
399.733215,-5181.441594,-74924.139704,-1036.288319
399.735785,-1480.411884,-77528.864398,-1924.535449
399.738356,-9918.759623,-69867.909418,-16728.654289
399.740927,2368.659014,-76149.892501,-5773.606348
399.743497,-8586.388927,-75230.577904,-35381.844028
399.746068,-7698.141797,-72166.195912,-1776.494261
399.748638,2516.700203,-73391.948708,-9622.677246
399.751209,-5921.647536,-73698.386908,11251.130318
399.753779,-2812.782580,-77222.426198,7402.059420
399.756350,-7254.018232,-68795.375720,-25167.002028
399.758920,-4589.276840,-71553.319513,-15396.283594
399.761491,1036.288319,-74004.825107,-19985.560434
399.764062,-7994.224174,-72472.634111,-8734.430116
399.766632,1332.370696,-73391.948708,-9326.594869
399.769203,-6365.771101,-73851.606007,-2220.617826
399.771773,1332.370696,-74924.139704,-2368.659014
399.774344,-9622.677246,-74617.701505,-6217.729913
399.776914,3256.906145,-73851.606007,-3108.864956
399.779485,-1776.494261,-74311.263306,-7698.141797
399.782055,-5921.647536,-74617.701505,-15988.448347
399.784625,1184.329507,-74004.825107,-4441.235652
399.787195,-8734.430116,-73238.729609,10807.006753
399.789766,-148.041188,-71553.319513,17616.901420
399.792336,-1924.535449,-75077.358804,20429.683999
399.794906,-1628.453072,-78601.398095,9474.636058
399.797476,-7698.141797,-76762.768900,1628.453072
399.800047,-1924.535449,-74924.139704,-3552.988522
399.802617,-5329.482782,-70174.347617,-2368.659014
399.805187,-2960.823768,-70480.785816,1184.329507
399.807757,-2812.782580,-70940.443115,-5181.441594
399.810328,-2220.617826,-76149.892501,10066.800811
399.812898,-4589.276840,-78448.178995,3256.906145
399.815468,-9326.594869,-73851.606007,11843.295072
399.818038,1628.453072,-77682.083497,6365.771101
399.820609,-5477.523971,-71400.100414,-6513.812290
399.823179,-7550.100608,-72932.291410,10510.924376
399.825749,-4589.276840,-73085.510509,8882.471304
399.828319,-3256.906145,-77988.521696,10214.842000
399.830890,-2812.782580,-77375.645298,16580.613101
399.833460,148.041188,-74158.044206,11399.171507
399.836030,-6661.853478,-70940.443115,12731.542202
399.838600,592.164754,-74770.920605,9918.759623
399.841171,-5921.647536,-74311.263306,-1628.453072
399.843741,-3108.864956,-75230.577904,3997.112087
399.846311,4589.276840,-75537.016103,7698.141797
399.848881,-9622.677246,-72625.853210,20133.601622
399.851452,296.082377,-76915.987999,10658.965565
399.854022,-12879.583391,-75383.797003,-4441.235652
399.856592,2812.782580,-76303.111601,-16876.695478
399.859162,-9770.718434,-72319.415011,-14359.995275
399.861733,592.164754,-71859.757712,-18209.066173
399.864303,-3256.906145,-74158.044206,-7402.059420
399.866873,-8290.306550,-75996.673402,-5477.523971
399.869443,2368.659014,-77222.426198,2072.576638
399.872014,-7254.018232,-74617.701505,-1924.535449
399.874584,-444.123565,-72932.291410,-1776.494261
399.877154,-4293.194464,-71093.662214,-14211.954086
399.879724,-2960.823768,-71246.881314,-16136.489536
399.882295,3849.070898,-74158.044206,2072.576638
399.884864,-3108.864956,-77375.645298,-13619.789333
399.887433,-4293.194464,-71246.881314,6661.853478
399.890002,6809.894666,-81512.560987,12583.501014
399.892571,-13619.789333,-72625.853210,-34493.596897
399.895140,4737.318029,-78601.398095,9622.677246
399.897709,-6957.935855,-73851.606007,-22502.260637
399.900278,-10362.883188,-70021.128517,-19985.560434
399.902847,4441.235652,-77528.864398,-7994.224174
399.905416,-15692.365970,-72779.072310,-12435.459826
399.907984,-740.205942,-74770.920605,296.082377
399.910553,-4441.235652,-75843.454302,-3849.070898
399.913122,-10807.006753,-74770.920605,-1776.494261
399.915691,4145.153275,-76609.549800,2220.617826
399.918260,-6365.771101,-72166.195912,-8290.306550
399.920829,-8734.430116,-74617.701505,-15988.448347
399.923398,-2516.700203,-74004.825107,-592.164754
399.925967,-6809.894666,-72625.853210,7402.059420
399.928536,-1776.494261,-72932.291410,19393.395680
399.931105,-1628.453072,-74004.825107,18061.024985
399.933674,-2812.782580,-78907.836294,12435.459826
399.936243,-8290.306550,-76762.768900,444.123565
399.938812,-6809.894666,-73391.948708,-2516.700203
399.941381,444.123565,-70021.128517,592.164754
399.943950,-4737.318029,-67109.965625,-5477.523971
399.946519,740.205942,-74464.482406,7402.059420
399.949088,-6957.935855,-73851.606007,-444.123565
399.951657,-3552.988522,-75843.454302,33605.349767
399.954226,-2812.782580,-77835.302597,4293.194464
399.956795,-8438.347739,-75077.358804,-6069.688724
399.959364,1480.411884,-71400.100414,27831.743419
399.961933,296.082377,-71859.757712,4885.359217
399.964502,-9474.636058,-73238.729609,10658.965565
399.967071,2368.659014,-84423.723880,18949.272115
399.969640,-13619.789333,-78141.740796,9622.677246
399.972209,4441.235652,-77682.083497,25315.043216
399.974778,-7698.141797,-72166.195912,4145.153275
399.977347,-9622.677246,-71553.319513,4589.276840
399.979916,3404.947333,-76456.330700,-1776.494261
399.982485,-9474.636058,-73698.386908,-148.041188
399.985054,-2960.823768,-76303.111601,12583.501014
399.987622,-5773.606348,-76303.111601,7550.100608
399.990190,-6957.935855,-75537.016103,4885.359217
399.992759,-1628.453072,-75077.358804,-12879.583391
399.995327,-3701.029710,-70634.004916,-10658.965565
399.997896,-2516.700203,-74004.825107,-14804.118840
400.000464,-8882.471304,-73545.167808,-16136.489536
400.003032,1480.411884,-76303.111601,-9030.512492
400.005601,-6365.771101,-75077.358804,-1480.411884
400.008169,-3256.906145,-73698.386908,-2960.823768
400.010737,-4737.318029,-72472.634111,-2368.659014
400.013306,-3997.112087,-72319.415011,-12139.377449
400.015874,-4737.318029,-78448.178995,888.247130
400.018442,-1184.329507,-74617.701505,11399.171507
400.021011,-1036.288319,-74924.139704,-13767.830521
400.023579,-4885.359217,-72166.195912,2960.823768
400.026147,1332.370696,-75537.016103,-13767.830521
400.028716,-8586.388927,-74770.920605,-14804.118840
400.031284,1184.329507,-76456.330700,-740.205942
400.033852,-2072.576638,-74617.701505,-18209.066173
400.036421,-9622.677246,-71859.757712,-13175.665768
400.038989,5329.482782,-75996.673402,-18061.024985
400.041557,-4145.153275,-72932.291410,-14359.995275
400.044126,-2516.700203,-75230.577904,-9474.636058
400.046694,-4441.235652,-74311.263306,-5033.400406
400.049262,-7254.018232,-73545.167808,296.082377
400.051831,-2812.782580,-75230.577904,-1924.535449
400.054399,2072.576638,-73545.167808,-3997.112087
400.056968,-7994.224174,-74770.920605,-10807.006753
400.059536,-4885.359217,-73238.729609,-1332.370696
400.062104,-2812.782580,-73698.386908,3108.864956
400.064673,-6957.935855,-71553.319513,15988.448347
400.067241,-592.164754,-73698.386908,20577.725188
400.069809,-4441.235652,-76609.549800,12435.459826
400.072378,-8734.430116,-77069.207099,1332.370696
400.074946,-8290.306550,-74004.825107,-4293.194464
400.077514,740.205942,-71246.881314,-1480.411884
400.080083,-1628.453072,-68029.280222,-4145.153275
400.082651,-296.082377,-71553.319513,7254.018232
400.085219,-148.041188,-74770.920605,15396.283594
400.087788,-6069.688724,-73238.729609,-28275.866984
400.090356,-8290.306550,-73238.729609,-1480.411884
400.092924,1480.411884,-78754.617194,-2812.782580
400.095491,-9326.594869,-70787.224015,26055.249158
400.098059,296.082377,-67569.622924,4737.318029
400.100627,-6513.812290,-71400.100414,9326.594869
400.103195,3552.988522,-74924.139704,1184.329507
400.105763,-2072.576638,-75996.673402,6809.894666
400.108331,-2220.617826,-73545.167808,9326.594869
400.110899,296.082377,-73085.510509,6069.688724
400.113467,-5477.523971,-70327.566716,6365.771101
400.116035,2664.741391,-75383.797003,10362.883188
400.118603,-6217.729913,-73698.386908,4737.318029
400.121170,1036.288319,-77375.645298,12879.583391
400.123738,-11399.171507,-75383.797003,1628.453072
400.126306,5921.647536,-76456.330700,-8586.388927
400.128874,-4441.235652,-72932.291410,-16136.489536
400.131442,-12583.501014,-71706.538613,-6809.894666
400.134010,-148.041188,-72472.634111,-14211.954086
400.136578,-7994.224174,-75996.673402,-5773.606348
400.139146,-3849.070898,-76456.330700,-8142.265362
400.141714,-3108.864956,-76303.111601,1036.288319
400.144282,296.082377,-73545.167808,-1184.329507
400.146849,-4885.359217,-72472.634111,-6365.771101
400.149417,-5181.441594,-76762.768900,-1184.329507
400.151985,-3108.864956,-72319.415011,-7254.018232
400.154553,-1036.288319,-75230.577904,-7402.059420
400.157121,-4441.235652,-71400.100414,-2220.617826
400.159689,-3701.029710,-74004.825107,9622.677246
400.162257,-592.164754,-79520.712692,12139.377449
400.164825,-9178.553681,-73391.948708,-21169.889941
400.167393,592.164754,-73391.948708,-5625.565159
400.169961,-3108.864956,-73238.729609,-17616.901420
400.172528,-6661.853478,-74158.044206,-11843.295072
400.175096,-1776.494261,-75077.358804,-12139.377449
400.177664,-11399.171507,-73545.167808,-9918.759623
400.180232,148.041188,-74617.701505,-4293.194464
400.182800,-9178.553681,-75843.454302,-2516.700203
400.185368,-3404.947333,-73545.167808,888.247130
400.187936,5033.400406,-74617.701505,-4589.276840
400.190504,-11547.212695,-74158.044206,-14359.995275
400.193070,-6513.812290,-73391.948708,296.082377
400.195636,-2960.823768,-74004.825107,10214.842000
400.198203,-3701.029710,-72166.195912,17616.901420
400.200769,-6809.894666,-74770.920605,23094.425390
400.203336,-3701.029710,-77528.864398,13619.789333
400.205902,-7402.059420,-76149.892501,148.041188
400.208468,-4885.359217,-74158.044206,-5329.482782
400.211035,-1480.411884,-70940.443115,-2664.741391
400.213601,-3552.988522,-73545.167808,2516.700203
400.216167,-1924.535449,-69255.033019,-11251.130318
400.218734,-4293.194464,-73698.386908,-5921.647536
400.221300,-3552.988522,-74158.044206,27979.784608
400.223866,-1332.370696,-79214.274493,2368.659014
400.226433,-15396.283594,-71246.881314,-14656.077652
400.228999,444.123565,-70634.004916,21910.095883
400.231565,-6661.853478,-74617.701505,-1036.288319
400.234132,-7698.141797,-75537.016103,14656.077652
400.236698,-444.123565,-81206.122788,3108.864956
400.239264,-15100.201217,-74770.920605,10955.047942
400.241831,6217.729913,-73851.606007,16432.571912
400.244397,-6513.812290,-72472.634111,3997.112087
400.246964,-6217.729913,-73545.167808,13915.871710
400.249530,444.123565,-76303.111601,4145.153275
400.252096,-15544.324782,-73698.386908,3849.070898
400.254663,7402.059420,-78601.398095,3997.112087
400.257229,-14508.036463,-75690.235202,-6957.935855
400.259795,2960.823768,-75690.235202,-14359.995275
400.262362,-7994.224174,-70787.224015,-9326.594869
400.264928,3256.906145,-72012.976812,-8882.471304
400.267494,-11547.212695,-73391.948708,-9326.594869
400.270061,296.082377,-77528.864398,-10362.883188
400.272627,-5329.482782,-75690.235202,-2960.823768
400.275193,-1628.453072,-75996.673402,-1924.535449
400.277760,-1036.288319,-74158.044206,-888.247130
400.280326,-8290.306550,-74770.920605,-3997.112087
400.282893,-4737.318029,-70940.443115,-17024.736666
400.285459,-1776.494261,-75230.577904,14804.118840
400.288025,-8290.306550,-73698.386908,-19985.560434
400.290592,-592.164754,-72166.195912,24722.878463
400.293158,-2812.782580,-76456.330700,-32421.020260
400.295723,-13323.706956,-75077.358804,-7254.018232
400.298288,6365.771101,-77682.083497,-13471.748144
400.300853,-7698.141797,-73085.510509,-16728.654289
400.303418,-4589.276840,-73698.386908,-4145.153275
400.305983,2516.700203,-74311.263306,-16728.654289
400.308548,-12435.459826,-72625.853210,-8142.265362
400.311113,7254.018232,-75996.673402,-5181.441594
400.313678,-15988.448347,-72625.853210,-4885.359217
400.316243,5033.400406,-76609.549800,5033.400406
400.318808,4885.359217,-75537.016103,-2368.659014
400.321373,-12583.501014,-73238.729609,-10066.800811
400.323939,-4737.318029,-72166.195912,592.164754
400.326504,-4145.153275,-73238.729609,9030.512492
400.329069,-6513.812290,-74004.825107,18505.148550
400.331634,-4145.153275,-74924.139704,20429.683999
400.334199,1184.329507,-77069.207099,12139.377449
400.336764,-9030.512492,-74770.920605,1332.370696
400.339329,-3108.864956,-74924.139704,-1776.494261
400.341894,-2812.782580,-74924.139704,888.247130
400.344459,-5477.523971,-73238.729609,2516.700203
400.347024,-7698.141797,-76609.549800,21465.972318
400.349589,-148.041188,-74924.139704,19541.436869
400.352154,-8586.388927,-76149.892501,7698.141797
400.354719,-2812.782580,-77069.207099,1332.370696
400.357284,-296.082377,-73085.510509,12879.583391
400.359849,-6069.688724,-66190.651027,7402.059420
400.362414,-2516.700203,-73545.167808,14211.954086
400.364979,-8882.471304,-74311.263306,5329.482782
400.367544,888.247130,-79673.931792,6365.771101
400.370109,-5921.647536,-76609.549800,12435.459826
400.372674,-3997.112087,-72779.072310,6069.688724
400.375239,-296.082377,-71093.662214,13619.789333
400.377805,-6069.688724,-72625.853210,10955.047942
400.380370,-2368.659014,-74770.920605,3997.112087
400.382935,-4441.235652,-76456.330700,9918.759623
400.385500,-11547.212695,-76303.111601,-10066.800811
400.388065,3256.906145,-76303.111601,-8882.471304
400.390630,-3701.029710,-73085.510509,-16136.489536
400.393195,-6957.935855,-69101.813920,-6365.771101
400.395760,-2960.823768,-72472.634111,-7550.100608
400.398324,-7846.182985,-75843.454302,-13175.665768
400.400887,-6069.688724,-78141.740796,-9030.512492
400.403451,1332.370696,-77682.083497,148.041188
400.406015,-4589.276840,-73238.729609,2516.700203
400.408579,-3256.906145,-72779.072310,-4293.194464
400.411143,-5625.565159,-77375.645298,7402.059420
400.413706,-2368.659014,-73851.606007,5625.565159
400.416270,-444.123565,-75230.577904,-8438.347739
400.418834,-6217.729913,-71093.662214,444.123565
400.421398,2664.741391,-74158.044206,23982.672521
400.423962,-2368.659014,-79214.274493,-12435.459826
400.426525,-11991.336260,-72319.415011,-8586.388927
400.429089,444.123565,-79367.493593,-14508.036463
400.431653,-10807.006753,-72625.853210,-15100.201217
400.434217,5477.523971,-74311.263306,-3256.906145
400.436781,-10658.965565,-72779.072310,-14508.036463
400.439344,-1036.288319,-73391.948708,-1924.535449
400.441908,-3552.988522,-75537.016103,-4737.318029
400.444472,-7698.141797,-73085.510509,-2072.576638
400.447036,9030.512492,-77682.083497,1184.329507
400.449599,-21614.013506,-73698.386908,-16876.695478
400.452163,-3404.947333,-71246.881314,-1184.329507
400.454727,-1776.494261,-73851.606007,11695.253884
400.457291,-9474.636058,-71859.757712,16284.530724
400.459855,3256.906145,-76303.111601,16580.613101
400.462418,-6365.771101,-77375.645298,13619.789333
400.464982,-3404.947333,-75230.577904,3108.864956
400.467546,-1776.494261,-75843.454302,-888.247130
400.470110,-8290.306550,-73238.729609,-4145.153275
400.472674,-2368.659014,-72012.976812,-4441.235652
400.475237,-1924.535449,-68795.375720,-18061.024985
400.477801,-7994.224174,-75077.358804,18801.230927
400.480365,-1628.453072,-76915.987999,21021.848753
400.482929,-16432.571912,-72012.976812,-4145.153275
400.485493,2960.823768,-75996.673402,25759.166782
400.488056,-7846.182985,-73238.729609,-3552.988522
400.490620,-11547.212695,-71400.100414,17912.983796
400.493184,12139.377449,-80746.465489,7550.100608
400.495748,-21465.972318,-71246.881314,-888.247130
400.498312,20725.766376,-80593.246390,18949.272115
400.500875,-21465.972318,-68795.375720,148.041188
400.503438,9474.636058,-72779.072310,11695.253884
400.506001,-5477.523971,-72319.415011,7402.059420
400.508564,-22206.178260,-73391.948708,7846.182985
400.511127,11103.089130,-78907.836294,4737.318029
400.513690,-21317.931130,-75230.577904,-10362.883188
400.516253,11991.336260,-76762.768900,-16136.489536
400.518816,-11843.295072,-72319.415011,-10066.800811
400.521379,-592.164754,-70021.128517,-10362.883188
400.523942,-10362.883188,-72012.976812,-6217.729913
400.526505,-4145.153275,-76609.549800,-8734.430116
400.529068,-2220.617826,-77835.302597,-6365.771101
400.531631,-7254.018232,-76149.892501,-7402.059420
400.534194,4589.276840,-75077.358804,3108.864956
400.536757,-12731.542202,-72932.291410,-2516.700203
400.539320,888.247130,-77988.521696,4293.194464
400.541883,-2220.617826,-75537.016103,-31828.855506
400.544446,-5921.647536,-74158.044206,2812.782580
400.547009,-3404.947333,-74924.139704,12139.377449
400.549572,-2960.823768,-78601.398095,15248.242405
400.552135,-8882.471304,-73698.386908,-15248.242405
400.554698,-2220.617826,-74770.920605,-9030.512492
400.557261,1924.535449,-71246.881314,-28423.908173
400.559824,-14359.995275,-73391.948708,-12879.583391
400.562387,740.205942,-75077.358804,-12139.377449
400.564950,-11547.212695,-74311.263306,-5329.482782
400.567513,-10658.965565,-73085.510509,-1628.453072
400.570077,7254.018232,-74770.920605,3256.906145
400.572640,-6217.729913,-75383.797003,1628.453072
400.575203,-2960.823768,-75537.016103,-17172.777854
400.577766,888.247130,-73391.948708,-4589.276840
400.580329,-10807.006753,-72932.291410,-2220.617826
400.582891,1332.370696,-72472.634111,12139.377449
400.585453,2812.782580,-75383.797003,17172.777854
400.588016,-6069.688724,-76762.768900,15544.324782
400.590578,-5033.400406,-77222.426198,5921.647536
400.593141,-4441.235652,-73851.606007,-3997.112087
400.595703,-7846.182985,-72932.291410,-1332.370696
400.598265,2072.576638,-74464.482406,-0.000000
400.600828,-3404.947333,-70021.128517,-13619.789333
400.603390,-5773.606348,-76915.987999,-18653.189738
400.605953,-5033.400406,-74311.263306,7402.059420
400.608515,-2664.741391,-78907.836294,15248.242405
400.611078,-10214.842000,-75996.673402,-20429.683999
400.613640,1332.370696,-69408.252119,17024.736666
400.616202,-1628.453072,-72932.291410,5329.482782
400.618765,-3997.112087,-69255.033019,5921.647536
400.621327,-296.082377,-76762.768900,-1628.453072
400.623890,-9622.677246,-77528.864398,-3552.988522
400.626452,-3256.906145,-75077.358804,12287.418637
400.629014,-444.123565,-72472.634111,8290.306550
400.631577,-5921.647536,-70787.224015,14508.036463
400.634139,-5329.482782,-75690.235202,14211.954086
400.636702,-5181.441594,-75537.016103,148.041188
400.639264,-10362.883188,-77835.302597,-6957.935855
400.641826,4293.194464,-77069.207099,-19541.436869
400.644389,5921.647536,-71400.100414,-9326.594869
400.646951,-7105.977043,-68795.375720,-10362.883188
400.649514,-9770.718434,-72472.634111,-4145.153275
400.652076,-1776.494261,-76915.987999,-6809.894666
400.654638,-10510.924376,-78294.959896,-9030.512492
400.657201,6365.771101,-75843.454302,-5625.565159
400.659763,-7105.977043,-72012.976812,-740.205942
400.662326,-7550.100608,-69561.471218,-17912.983796
400.664888,444.123565,-76915.987999,-25018.960840
400.667450,-13027.624579,-70327.566716,-9918.759623
400.670013,4441.235652,-79367.493593,5477.523971
400.672575,-5773.606348,-70940.443115,7994.224174
400.675138,-1480.411884,-77528.864398,-5329.482782
400.677700,-4737.318029,-71706.538613,-19689.478057
400.680262,5181.441594,-73545.167808,-8734.430116
400.682825,-3997.112087,-76762.768900,-19837.519246
400.685387,-4737.318029,-75690.235202,-6809.894666
400.687950,-6217.729913,-76609.549800,-5625.565159
400.690512,-3997.112087,-73238.729609,-3552.988522
400.693074,-4145.153275,-74770.920605,-4145.153275
400.695637,-3552.988522,-74311.263306,-444.123565
400.698199,5329.482782,-76303.111601,1480.411884
400.700761,-17320.819043,-74617.701505,-13619.789333
400.703324,1332.370696,-73238.729609,-0.000000
400.705886,-5477.523971,-73851.606007,11843.295072
400.708449,-4145.153275,-71553.319513,17320.819043
400.711011,-0.000000,-76149.892501,19393.395680
400.713573,-6661.853478,-77988.521696,9622.677246
400.716136,-2812.782580,-76609.549800,2812.782580
400.718698,-8142.265362,-74158.044206,-592.164754
400.721260,-4885.359217,-75690.235202,2516.700203
400.723823,-6661.853478,-71859.757712,-4145.153275
400.726385,-592.164754,-77988.521696,-6957.935855
400.728948,-10214.842000,-74464.482406,8438.347739
400.731510,740.205942,-78754.617194,12287.418637
400.734072,-7402.059420,-77528.864398,-11991.336260
400.736635,-3701.029710,-70327.566716,-8734.430116
400.739197,2812.782580,-67569.622924,14063.912898
400.741759,-4737.318029,-69561.471218,1776.494261
400.744322,-5625.565159,-73391.948708,8586.388927
400.746884,2516.700203,-78141.740796,-2664.741391
400.749447,-16284.530724,-73238.729609,2960.823768
400.752009,9178.553681,-73085.510509,7105.977043
400.754571,-12139.377449,-70787.224015,12879.583391
400.757134,-11991.336260,-73391.948708,12139.377449
400.759696,3108.864956,-77682.083497,4441.235652
400.762258,-16284.530724,-76303.111601,-8586.388927
400.764821,3849.070898,-78601.398095,-12583.501014
400.767383,4589.276840,-73085.510509,-12139.377449
400.769946,-13027.624579,-69255.033019,-8734.430116
400.772508,-1036.288319,-71093.662214,-5033.400406
400.775070,-9622.677246,-76303.111601,-4885.359217
400.777633,-12731.542202,-78907.836294,-7698.141797
400.780195,8290.306550,-77069.207099,-3108.864956
400.782757,-7994.224174,-72472.634111,-0.000000
400.785320,-740.205942,-72932.291410,444.123565
400.787882,-1924.535449,-74617.701505,6217.729913
400.790443,-8882.471304,-75537.016103,-31532.773129
400.793005,2516.700203,-75996.673402,3108.864956
400.795567,3849.070898,-75077.358804,-11399.171507
400.798128,-13767.830521,-71859.757712,-17172.777854
400.800690,-1924.535449,-75843.454302,-148.041188
400.803252,-3701.029710,-71246.881314,-25759.166782
400.805813,-7994.224174,-72625.853210,-17616.901420
400.808375,4589.276840,-74004.825107,-27979.784608
400.810936,-8882.471304,-72166.195912,-7994.224174
400.813498,-2960.823768,-75230.577904,-6661.853478
400.816060,-2220.617826,-72166.195912,1480.411884
400.818621,-4293.194464,-75077.358804,6069.688724
400.821183,2516.700203,-77222.426198,-592.164754
400.823745,-11103.089130,-74770.920605,-6661.853478
400.826306,-5773.606348,-72932.291410,-2368.659014
400.828868,-2960.823768,-72472.634111,10362.883188
400.831430,-4589.276840,-73238.729609,18505.148550
400.833991,-6661.853478,-76456.330700,13915.871710
400.836553,5181.441594,-78601.398095,10510.924376
400.839115,-13175.665768,-74770.920605,3256.906145
400.841676,444.123565,-74158.044206,1480.411884
400.844238,-4737.318029,-74004.825107,3997.112087
400.846800,-11695.253884,-73545.167808,2072.576638
400.849361,1332.370696,-77222.426198,11695.253884
400.851923,-10362.883188,-73085.510509,18653.189738
400.854484,888.247130,-74617.701505,7698.141797
400.857046,-9474.636058,-74158.044206,-27535.661042
400.859608,1924.535449,-70174.347617,8290.306550
400.862169,-6217.729913,-69101.813920,-296.082377
400.864731,-2664.741391,-67263.184724,11843.295072
400.867293,1628.453072,-78141.740796,740.205942
400.869854,-13767.830521,-73851.606007,-5181.441594
400.872416,15544.324782,-74464.482406,13027.624579
400.874978,-14063.912898,-71400.100414,3849.070898
400.877539,7550.100608,-70021.128517,13619.789333
400.880101,-11399.171507,-75843.454302,12139.377449
400.882663,-8438.347739,-74464.482406,1332.370696
400.885224,444.123565,-78907.836294,-14211.954086
400.887786,-8586.388927,-74311.263306,-23094.425390
400.890347,-1184.329507,-69867.909418,-9622.677246
400.892909,-3108.864956,-70174.347617,-7254.018232
400.895470,-13027.624579,-72319.415011,-3997.112087
400.898032,1776.494261,-79214.274493,-6809.894666
400.900593,-8290.306550,-77835.302597,-6513.812290
400.903155,2516.700203,-78141.740796,-5921.647536
400.905716,-5477.523971,-72779.072310,148.041188
400.908278,-9030.512492,-76915.987999,8734.430116
400.910839,5329.482782,-71400.100414,-7698.141797
400.913401,-12731.542202,-75383.797003,-35085.761651
400.915962,-2368.659014,-73238.729609,32421.020260
400.918524,12879.583391,-80286.808190,-24574.837274
400.921085,-31976.896694,-73085.510509,-2664.741391
400.923647,22058.137072,-80286.808190,-7994.224174
400.926208,-24426.796086,-68795.375720,-15544.324782
400.928769,-4145.153275,-74311.263306,-5921.647536
400.931331,-148.041188,-74770.920605,-19837.519246
400.933892,-21317.931130,-75077.358804,-1924.535449
400.936454,11103.089130,-76915.987999,1480.411884
400.939015,-19541.436869,-70940.443115,296.082377
400.941577,19985.560434,-78907.836294,11251.130318
400.944138,-24870.919651,-74004.825107,-13767.830521
400.946700,6809.894666,-74617.701505,2812.782580
400.949261,-1776.494261,-74158.044206,12287.418637
400.951823,-9918.759623,-72779.072310,15988.448347
400.954384,6217.729913,-76915.987999,20725.766376
400.956946,-8586.388927,-77528.864398,9770.718434
400.959507,-2664.741391,-75996.673402,3404.947333
400.962069,-3849.070898,-74924.139704,1036.288319
400.964630,-6809.894666,-73085.510509,-444.123565
400.967192,-4293.194464,-72932.291410,13471.748144
400.969753,3256.906145,-73698.386908,7105.977043
400.972315,-12139.377449,-73545.167808,-1924.535449
400.974876,-1332.370696,-79367.493593,11399.171507
400.977437,-9178.553681,-76915.987999,13767.830521
400.979999,296.082377,-74004.825107,16728.654289
400.982560,-888.247130,-72472.634111,19837.519246
400.985122,-7254.018232,-70021.128517,19837.519246
400.987683,6217.729913,-79520.712692,3404.947333
400.990245,-20577.725188,-76915.987999,-148.041188
400.992805,12435.459826,-75383.797003,5625.565159
400.995366,-9770.718434,-71246.881314,15100.201217
400.997926,3701.029710,-71859.757712,11547.212695
401.000487,-10510.924376,-74464.482406,11991.336260
401.003047,-11103.089130,-77069.207099,-888.247130
401.005608,9474.636058,-79214.274493,-17616.901420
401.008168,-7994.224174,-74464.482406,-20725.766376
401.010729,-3108.864956,-69561.471218,-11251.130318
401.013289,-444.123565,-68948.594820,-5625.565159
401.015850,-15988.448347,-72166.195912,-5921.647536
401.018410,3256.906145,-79367.493593,-7550.100608
401.020971,-11251.130318,-78448.178995,-13471.748144
401.023531,-7698.141797,-71246.881314,-11547.212695
401.026091,9622.677246,-74464.482406,6661.853478
401.028652,-15692.365970,-70940.443115,7254.018232
401.031212,3108.864956,-74158.044206,-26351.331535
401.033773,-9770.718434,-74617.701505,6069.688724
401.036333,3552.988522,-78294.959896,-15988.448347
401.038894,-12731.542202,-73085.510509,-20873.807564
401.041454,-4441.235652,-76915.987999,2072.576638
401.044015,-1184.329507,-75383.797003,-14952.160028
401.046575,-13471.748144,-72932.291410,-12139.377449
401.049136,-444.123565,-77375.645298,-18505.148550
401.051696,-8142.265362,-74004.825107,-15100.201217
401.054257,-6365.771101,-77988.521696,-1776.494261
401.056817,-3997.112087,-72625.853210,1776.494261
401.059378,-3701.029710,-73545.167808,8734.430116
401.061938,-7698.141797,-76456.330700,-7994.224174
401.064499,296.082377,-73391.948708,-2072.576638
401.067059,-10362.883188,-73851.606007,3701.029710
401.069620,-0.000000,-70327.566716,9326.594869
401.072180,-888.247130,-75077.358804,18801.230927
401.074741,-6365.771101,-77069.207099,12879.583391
401.077301,3404.947333,-77682.083497,8586.388927
401.079861,-7698.141797,-73238.729609,2072.576638
401.082422,-3997.112087,-68488.937521,-2072.576638
401.084982,7846.182985,-74311.263306,8438.347739
401.087543,-11399.171507,-68948.594820,13471.748144
401.090103,7994.224174,-76762.768900,-2664.741391
401.092664,-14508.036463,-74004.825107,-444.123565
401.095224,3108.864956,-77069.207099,2516.700203
401.097784,-12435.459826,-75996.673402,15396.283594
401.100344,-1776.494261,-70327.566716,15988.448347
401.102904,-2812.782580,-68642.156621,9326.594869
401.105464,-2368.659014,-74617.701505,5181.441594
401.108024,-9622.677246,-76456.330700,-8290.306550
401.110584,5773.606348,-76609.549800,5773.606348
401.113144,-12139.377449,-71706.538613,2072.576638
401.115704,2664.741391,-70480.785816,18505.148550
401.118265,2368.659014,-75230.577904,18357.107362
401.120825,-18653.189738,-76915.987999,1184.329507
401.123385,5625.565159,-78907.836294,-17764.942608
401.125945,-6217.729913,-76303.111601,-24870.919651
401.128505,148.041188,-71553.319513,-10807.006753
401.131065,148.041188,-69867.909418,-10214.842000
401.133625,-20281.642811,-70480.785816,-5625.565159
401.136185,7402.059420,-78601.398095,-7105.977043
401.138745,-10362.883188,-77988.521696,-7105.977043
401.141305,3701.029710,-76609.549800,-6957.935855
401.143865,-4589.276840,-74004.825107,-1628.453072
401.146425,-19393.395680,-70634.004916,-13915.871710
401.148985,8290.306550,-72472.634111,3552.988522
401.151545,-8142.265362,-74924.139704,-23686.590144
401.154106,-10955.047942,-72166.195912,3849.070898
401.156666,10214.842000,-78448.178995,148.041188
401.159226,-1184.329507,-75690.235202,-18653.189738
401.161786,-13323.706956,-70021.128517,592.164754
401.164346,13915.871710,-71553.319513,-24722.878463
401.166906,-15544.324782,-69561.471218,-11103.089130
401.169466,8438.347739,-79214.274493,-18801.230927
401.172026,-19393.395680,-71706.538613,-11547.212695
401.174586,7254.018232,-77528.864398,6661.853478
401.177146,3701.029710,-73698.386908,4737.318029
401.179706,-16580.613101,-74464.482406,-7402.059420
401.182266,4885.359217,-75537.016103,2072.576638
401.184826,-15692.365970,-72319.415011,-296.082377
401.187386,3552.988522,-74770.920605,11547.212695
401.189946,-3256.906145,-75077.358804,15248.242405
401.192507,2072.576638,-76149.892501,13175.665768
401.195067,-5181.441594,-76303.111601,10658.965565
401.197627,-1776.494261,-72166.195912,296.082377
401.200187,-1924.535449,-69255.033019,-4441.235652
401.202747,4441.235652,-72472.634111,1332.370696
401.205307,-888.247130,-72472.634111,-740.205942
401.207867,-5329.482782,-72012.976812,-3256.906145
401.210427,-1628.453072,-75690.235202,9474.636058
401.212987,-11399.171507,-77528.864398,13767.830521
401.215547,-6365.771101,-71246.881314,10807.006753
401.218107,-3552.988522,-69255.033019,19985.560434
401.220667,-2812.782580,-70480.785816,12435.459826
401.223227,-5033.400406,-77375.645298,5625.565159
401.225787,-5773.606348,-78448.178995,1332.370696
401.228347,-6365.771101,-76609.549800,2368.659014
401.230907,-2812.782580,-71553.319513,14359.995275
401.233467,-5033.400406,-70634.004916,13175.665768
401.236027,-6365.771101,-74464.482406,10214.842000
401.238587,-6661.853478,-78141.740796,-11547.212695
401.241147,-4293.194464,-78601.398095,-22354.219448
401.243707,3701.029710,-74311.263306,-20429.683999
401.246267,-9622.677246,-70021.128517,-8142.265362
401.248827,-6069.688724,-68488.937521,-3701.029710
401.251387,-2072.576638,-74004.825107,-3701.029710
401.253947,-12435.459826,-77528.864398,-6365.771101
401.256507,7550.100608,-75537.016103,-10955.047942
401.259067,-7254.018232,-73545.167808,-10362.883188
401.261627,1776.494261,-70634.004916,-19985.560434
401.264187,-15396.283594,-70174.347617,-8438.347739
401.266747,-1480.411884,-73545.167808,-1184.329507
401.269307,-4441.235652,-77835.302597,-12879.583391
401.271867,-16876.695478,-72166.195912,-19393.395680
401.274427,11991.336260,-82125.437386,-6365.771101
401.276987,-20725.766376,-71246.881314,-17320.819043
401.279547,4589.276840,-73238.729609,-9326.594869
401.282107,-7254.018232,-71706.538613,-22502.260637
401.284667,-3256.906145,-74311.263306,-12731.542202
401.287227,-8438.347739,-77682.083497,-15100.201217
401.289787,-10658.965565,-72932.291410,3552.988522
401.292347,7550.100608,-73698.386908,8142.265362
401.294907,-16580.613101,-74464.482406,-6217.729913
401.297467,4737.318029,-74158.044206,-592.164754
401.299989,-13767.830521,-74617.701505,2960.823768
401.302511,-0.000000,-72625.853210,6365.771101
401.305033,-1628.453072,-75077.358804,18653.189738
401.307556,-6513.812290,-75843.454302,13619.789333
401.310078,-1184.329507,-75690.235202,5477.523971
401.312600,-5773.606348,-74770.920605,6217.729913
401.315122,-6217.729913,-72166.195912,2368.659014
401.317644,-9622.677246,-73545.167808,-740.205942
401.320166,-3849.070898,-74924.139704,12139.377449
401.322688,-1036.288319,-77528.864398,18653.189738
401.325210,-11399.171507,-73851.606007,296.082377
401.327732,-1184.329507,-74158.044206,-18357.107362
401.330254,-3997.112087,-77375.645298,11695.253884
401.332776,-3256.906145,-71859.757712,12583.501014
401.335298,-5181.441594,-74311.263306,18801.230927
401.337821,-9622.677246,-75690.235202,13323.706956
401.340343,1776.494261,-79673.931792,5033.400406
401.342865,-6217.729913,-76609.549800,3108.864956
401.345387,2072.576638,-72166.195912,3849.070898
401.347909,-11695.253884,-72012.976812,17616.901420
401.350431,-2072.576638,-74311.263306,6661.853478
401.352953,-13471.748144,-77682.083497,-4885.359217
401.355475,1628.453072,-78448.178995,-24130.713709
401.357997,1924.535449,-74617.701505,-15692.365970
401.360519,-9770.718434,-68795.375720,-12139.377449
401.363041,-3552.988522,-70174.347617,-5625.565159
401.365563,-1332.370696,-75843.454302,-6365.771101
401.368085,-11251.130318,-77682.083497,-6661.853478
401.370608,5181.441594,-74158.044206,-10807.006753
401.373130,-1628.453072,-75996.673402,-5181.441594
401.375652,-2812.782580,-68642.156621,-7254.018232
401.378174,-3404.947333,-71706.538613,8734.430116
401.380696,-5625.565159,-69408.252119,-52702.663070
401.383218,-20281.642811,-73391.948708,2664.741391
401.385740,12435.459826,-82125.437386,2516.700203
401.388262,-17024.736666,-78294.959896,-23982.672521
401.390784,-5625.565159,-75996.673402,3849.070898
401.393306,2072.576638,-70940.443115,-25315.043216
401.395828,-7105.977043,-72932.291410,2072.576638
401.398350,7994.224174,-78141.740796,-20281.642811
401.400880,-16284.530724,-72625.853210,-13175.665768
401.403410,2072.576638,-76456.330700,7550.100608
401.405939,-1480.411884,-72625.853210,888.247130
401.408469,-11103.089130,-73238.729609,-5477.523971
401.410999,-444.123565,-74158.044206,6809.894666
401.413528,-9622.677246,-72779.072310,1776.494261
401.416058,3404.947333,-74770.920605,14952.160028
401.418588,-4441.235652,-74617.701505,10807.006753
401.421118,2220.617826,-77835.302597,12287.418637
401.423647,-7402.059420,-74464.482406,5921.647536
401.426177,1924.535449,-70480.785816,-296.082377
401.428707,-5921.647536,-71706.538613,5773.606348
401.431236,1036.288319,-70480.785816,-17320.819043
401.433766,-4145.153275,-72779.072310,16432.571912
401.436296,-1628.453072,-76303.111601,1332.370696
401.438825,-6957.935855,-73851.606007,-10214.842000
401.441355,-5773.606348,-75383.797003,-1480.411884
401.443885,-3256.906145,-67722.842023,7105.977043
401.446414,888.247130,-69867.909418,9178.553681
401.448944,-6069.688724,-74617.701505,20133.601622
401.451474,-4885.359217,-76303.111601,2664.741391
401.454003,-2960.823768,-77222.426198,3849.070898
401.456533,-3849.070898,-74464.482406,5773.606348
401.459063,-5181.441594,-70634.004916,11251.130318
401.461592,1480.411884,-72932.291410,10955.047942
401.464122,-12879.583391,-75843.454302,-3849.070898
401.466652,740.205942,-78294.959896,-20725.766376
401.469181,-1332.370696,-76915.987999,-19393.395680
401.471711,-9474.636058,-71706.538613,-10955.047942
401.474241,5033.400406,-69867.909418,-2664.741391
401.476770,-13619.789333,-71553.319513,-1332.370696
401.479300,-4885.359217,-77835.302597,-6809.894666
401.481830,2812.782580,-77375.645298,-11547.212695
401.484360,-3404.947333,-71859.757712,-16284.530724
401.486889,-2368.659014,-70634.004916,-14952.160028
401.489419,-13471.748144,-70327.566716,-21317.931130
401.491949,1776.494261,-70787.224015,2664.741391
401.494478,-8882.471304,-76303.111601,-9178.553681
401.497008,-4293.194464,-73851.606007,-18061.024985
401.499538,-6809.894666,-80133.589091,-13323.706956
401.502074,-10658.965565,-68335.718422,-23686.590144
401.504610,8290.306550,-70940.443115,-4737.318029
401.507147,-10362.883188,-69408.252119,-21762.054695
401.509683,1924.535449,-74770.920605,-8142.265362
401.512220,-5477.523971,-78141.740796,-17912.983796
401.514756,-7105.977043,-74617.701505,592.164754
401.517292,12583.501014,-75843.454302,11991.336260
401.519829,-21317.931130,-72166.195912,-4885.359217
401.522365,592.164754,-72625.853210,6661.853478
401.524901,-4737.318029,-74311.263306,5921.647536
401.527438,-5181.441594,-73085.510509,9030.512492
401.529974,6809.894666,-76915.987999,14359.995275
401.532511,-7846.182985,-76303.111601,12139.377449
401.535047,-2664.741391,-73698.386908,2368.659014
401.537583,-3997.112087,-75230.577904,8142.265362
401.540120,-2220.617826,-73391.948708,11843.295072
401.542656,-3701.029710,-72932.291410,15100.201217
401.545192,4145.153275,-76303.111601,3552.988522
401.547729,-8734.430116,-73238.729609,-4293.194464
401.550265,-3108.864956,-73698.386908,24130.713709
401.552802,13619.789333,-74924.139704,11547.212695
401.555338,-17616.901420,-72625.853210,13619.789333
401.557874,7846.182985,-70940.443115,19689.478057
401.560411,-2960.823768,-72779.072310,-2812.782580
401.562947,-5477.523971,-75230.577904,10658.965565
401.565483,3108.864956,-78141.740796,-1924.535449
401.568020,-11843.295072,-70940.443115,10066.800811
401.570556,5477.523971,-74311.263306,10658.965565
401.573093,-7994.224174,-71859.757712,6217.729913
401.575629,-2960.823768,-75843.454302,-5921.647536
401.578165,-7254.018232,-78448.178995,-25315.043216
401.580702,4145.153275,-74004.825107,-20577.725188
401.583238,-8586.388927,-71553.319513,-10658.965565
401.585775,-6957.935855,-69867.909418,-5477.523971
401.588311,-740.205942,-73851.606007,-1628.453072
401.590847,-14952.160028,-77988.521696,-2812.782580
401.593384,10066.800811,-81972.218286,-4145.153275
401.595920,-11695.253884,-73391.948708,-14359.995275
401.598456,-888.247130,-76915.987999,-16876.695478
401.600993,-10510.924376,-68182.499322,-296.082377
401.603535,-296.082377,-75077.358804,-12879.583391
401.606077,-13323.706956,-70940.443115,4885.359217
401.608619,10807.006753,-80440.027290,-8734.430116
401.611162,1480.411884,-77988.521696,-24574.837274
401.613704,-14508.036463,-68182.499322,-16284.530724
401.616246,3997.112087,-71859.757712,-17172.777854
401.618788,-12287.418637,-67876.061123,-14804.118840
401.621330,-1036.288319,-78754.617194,-8438.347739
401.623872,-11547.212695,-75383.797003,-6365.771101
401.626415,1924.535449,-77835.302597,2368.659014
401.628957,-7994.224174,-73698.386908,-148.041188
401.631499,-148.041188,-72472.634111,4293.194464
401.634041,-4145.153275,-74770.920605,7550.100608
401.636583,-5181.441594,-73085.510509,5921.647536
401.639126,3701.029710,-75690.235202,14211.954086
401.641668,-11399.171507,-76149.892501,12287.418637
401.644210,3108.864956,-77069.207099,10066.800811
401.646752,-12879.583391,-73698.386908,2812.782580
401.649294,-4145.153275,-76149.892501,8586.388927
401.651836,-3849.070898,-72472.634111,-4293.194464
401.654379,-4441.235652,-75383.797003,20133.601622
401.656921,4589.276840,-78448.178995,-1332.370696
401.659463,-11251.130318,-75383.797003,-8438.347739
401.662005,8586.388927,-75230.577904,8734.430116
401.664547,-13323.706956,-68335.718422,3997.112087
401.667090,-6661.853478,-69255.033019,11843.295072
401.669632,1776.494261,-75690.235202,16284.530724
401.672174,-9622.677246,-77375.645298,5033.400406
401.674716,296.082377,-74617.701505,3701.029710
401.677258,-5329.482782,-73238.729609,6809.894666
401.679801,-444.123565,-71706.538613,11843.295072
401.682343,-5921.647536,-72319.415011,10510.924376
401.684853,-11843.295072,-75230.577904,-5477.523971
401.687364,4737.318029,-78907.836294,-23390.507767
401.689874,-4589.276840,-76456.330700,-20725.766376
401.692384,-4589.276840,-70327.566716,-10066.800811
401.694895,-888.247130,-71246.881314,-1924.535449
401.697405,-10658.965565,-72012.976812,-444.123565
401.699916,-1480.411884,-79214.274493,-5921.647536
401.702426,-8734.430116,-80899.684589,-10807.006753
401.704937,-2664.741391,-74924.139704,-1628.453072
401.707447,-1184.329507,-69101.813920,-444.123565
401.709958,-3997.112087,-71093.662214,-6957.935855
401.712468,-8734.430116,-69255.033019,-1628.453072
401.714978,1036.288319,-75077.358804,-15988.448347
401.717489,-6365.771101,-77682.083497,-20133.601622
401.719999,2220.617826,-77835.302597,-13323.706956
401.722510,-8586.388927,-69867.909418,-24426.796086
401.725020,-10362.883188,-68795.375720,-7994.224174
401.727531,7846.182985,-74004.825107,-12287.418637
401.730041,-11251.130318,-76456.330700,-11843.295072
401.732552,3552.988522,-77835.302597,-7846.182985
401.735062,-3701.029710,-74924.139704,2516.700203
401.737572,-2516.700203,-73545.167808,1924.535449
401.740083,-2072.576638,-73545.167808,7105.977043
401.742593,-12435.459826,-72166.195912,9474.636058
401.745104,2220.617826,-74004.825107,7550.100608
401.747614,-5477.523971,-76915.987999,10362.883188
401.750125,-4145.153275,-77222.426198,12879.583391
401.752635,-1480.411884,-75843.454302,6661.853478
401.755146,-10362.883188,-69408.252119,4589.276840
401.757656,3701.029710,-67876.061123,-2960.823768
401.760166,-5921.647536,-76456.330700,10955.047942
401.762677,-4441.235652,-76303.111601,10955.047942
401.765187,-2220.617826,-78907.836294,296.082377
401.767698,-7550.100608,-76149.892501,24130.713709
401.770208,3108.864956,-79980.369991,7402.059420
401.772719,-5773.606348,-67569.622924,11547.212695
401.775229,3849.070898,-74770.920605,24574.837274
401.777740,-10510.924376,-73238.729609,8586.388927
401.780250,-888.247130,-77528.864398,16876.695478
401.782760,-1924.535449,-76609.549800,2072.576638
401.785281,-5773.606348,-71246.881314,9622.677246
401.787803,-3997.112087,-73238.729609,9918.759623
401.790325,-7846.182985,-72012.976812,4885.359217
401.792846,-7254.018232,-76149.892501,-7105.977043
401.795368,-592.164754,-77069.207099,-23242.466579
401.797890,8882.471304,-73545.167808,-15396.283594
401.800412,-11103.089130,-72166.195912,-6661.853478
401.802933,-7994.224174,-70940.443115,-5181.441594
401.805455,-592.164754,-75690.235202,-3404.947333
401.807977,-9770.718434,-76149.892501,-6513.812290
401.810499,10214.842000,-74617.701505,-16136.489536
401.813020,-15248.242405,-75690.235202,2516.700203
401.815542,8734.430116,-73238.729609,3256.906145
401.818064,4441.235652,-73391.948708,-9770.718434
401.820586,-19985.560434,-69255.033019,-22650.301825
401.823107,3849.070898,-75230.577904,-12435.459826
401.825629,-1184.329507,-80899.684589,-11103.089130
401.828151,-15840.407159,-76762.768900,-14952.160028
401.830673,148.041188,-74158.044206,-14656.077652
401.833194,-9326.594869,-70940.443115,-12139.377449
401.835716,-6069.688724,-74004.825107,-11843.295072
401.838238,1036.288319,-78448.178995,-13619.789333
401.840760,-12435.459826,-75383.797003,-3997.112087
401.843282,7105.977043,-76609.549800,4145.153275
401.845803,-12435.459826,-72166.195912,3256.906145
401.848325,-3997.112087,-71246.881314,8290.306550
401.850847,2072.576638,-73085.510509,14063.912898
401.853369,-6513.812290,-74158.044206,12879.583391
401.855890,2960.823768,-77835.302597,11547.212695
401.858412,-5181.441594,-77528.864398,8142.265362
401.860934,-5181.441594,-72932.291410,3849.070898
401.863456,296.082377,-71093.662214,7105.977043
401.865977,-12139.377449,-72932.291410,6661.853478
401.868499,1480.411884,-70940.443115,16580.613101
401.871021,-4145.153275,-80286.808190,2516.700203
401.873543,-16136.489536,-74311.263306,-12435.459826
401.876064,888.247130,-77375.645298,33901.432144
401.878586,1184.329507,-69867.909418,-12287.418637
401.881108,-12435.459826,-68335.718422,26795.455100
401.883630,10658.965565,-75690.235202,9178.553681
401.886161,-21021.848753,-70787.224015,4885.359217
401.888692,5477.523971,-81206.122788,13323.706956
401.891223,-592.164754,-72166.195912,-1036.288319
401.893755,-7254.018232,-70480.785816,14211.954086
401.896286,3256.906145,-74617.701505,9178.553681
401.898817,-17616.901420,-72932.291410,-8586.388927
401.901348,8290.306550,-80899.684589,-22502.260637
401.903880,-10214.842000,-74311.263306,-23686.590144
401.906411,-148.041188,-72472.634111,-11251.130318
401.908942,-6809.894666,-71400.100414,-2812.782580
401.911473,-3849.070898,-73698.386908,-2516.700203
401.914005,-7254.018232,-78448.178995,-3108.864956
401.916536,2220.617826,-80593.246390,-7105.977043
401.919067,-10955.047942,-72932.291410,-19097.313304
401.921598,3701.029710,-76915.987999,-21614.013506
401.924130,-6217.729913,-69101.813920,-4293.194464
401.926661,-2664.741391,-71400.100414,7402.059420
401.929192,-1184.329507,-79214.274493,-7698.141797
401.931723,-1332.370696,-77069.207099,-20281.642811
401.934255,444.123565,-77069.207099,-19245.354492
401.936786,-5033.400406,-68948.594820,-19097.313304
401.939317,3997.112087,-68182.499322,-6069.688724
401.941848,-14359.995275,-71093.662214,-9474.636058
401.944380,2516.700203,-76303.111601,-7846.182985
401.946911,-9770.718434,-78141.740796,-10658.965565
401.949442,-4441.235652,-75843.454302,-1036.288319
401.951973,1924.535449,-74770.920605,4589.276840
401.954505,-17912.983796,-69101.813920,10214.842000
401.957036,6365.771101,-74464.482406,20281.642811
401.959567,-14656.077652,-74004.825107,12287.418637
401.962098,6661.853478,-78294.959896,9178.553681
401.964630,-6513.812290,-78294.959896,6957.935855
401.967161,-7550.100608,-73391.948708,3997.112087
401.969692,-4293.194464,-69867.909418,12879.583391
401.972223,-11103.089130,-74770.920605,16876.695478
401.974755,1332.370696,-73545.167808,13767.830521
401.977286,-10362.883188,-79214.274493,-3108.864956
401.979817,-296.082377,-78601.398095,-5181.441594
401.982348,-6217.729913,-75843.454302,-8882.471304
401.984879,-6217.729913,-73851.606007,21169.889941
401.987419,11843.295072,-69255.033019,16580.613101
401.989959,-20873.807564,-74004.825107,15544.324782
401.992498,4441.235652,-78141.740796,3108.864956
401.995038,-8586.388927,-78448.178995,3701.029710
401.997577,-148.041188,-74158.044206,6809.894666
402.000117,-10214.842000,-71553.319513,17616.901420
402.002657,-5329.482782,-71093.662214,8882.471304
402.005196,-6069.688724,-76303.111601,-7402.059420
402.007736,-6365.771101,-77835.302597,-26203.290347
402.010275,5181.441594,-75690.235202,-17320.819043
402.012815,-9770.718434,-70327.566716,-10658.965565
402.015355,-7550.100608,-70174.347617,-1924.535449
402.017894,-2664.741391,-75996.673402,-2516.700203
402.020434,-8290.306550,-76762.768900,-7846.182985
402.022973,4885.359217,-80899.684589,-10066.800811
402.025513,-14656.077652,-73085.510509,-14508.036463
402.028053,-1184.329507,-72012.976812,-26795.455100
402.030592,-740.205942,-69714.690318,8290.306550
402.033132,-8882.471304,-69867.909418,-24574.837274
402.035671,148.041188,-72932.291410,-17172.777854
402.038211,-7846.182985,-79827.150892,-20281.642811
402.040751,-2812.782580,-72012.976812,-28127.825796
402.043290,296.082377,-71553.319513,-148.041188
402.045830,-5033.400406,-70940.443115,-14508.036463
402.048369,-2220.617826,-73085.510509,-9030.512492
402.050909,-2220.617826,-78294.959896,-7550.100608
402.053448,-2072.576638,-76303.111601,-3997.112087
402.055988,-2960.823768,-75537.016103,-6957.935855
402.058528,-1184.329507,-70327.566716,7994.224174
402.061067,-7105.977043,-71859.757712,16876.695478
402.063607,-4589.276840,-74311.263306,17024.736666
402.066146,1036.288319,-76762.768900,6661.853478
402.068686,-7402.059420,-79367.493593,8882.471304
402.071226,-740.205942,-75537.016103,2220.617826
402.073765,-2960.823768,-68182.499322,3997.112087
402.076305,2368.659014,-72166.195912,12583.501014
402.078844,-5477.523971,-71553.319513,12583.501014
402.081384,-8290.306550,-74464.482406,7994.224174
402.083924,4589.276840,-75383.797003,-592.164754
402.086463,-11103.089130,-74617.701505,-23390.507767
402.088975,-0.000000,-74770.920605,11251.130318
402.091486,7105.977043,-70021.128517,13323.706956
402.093997,-22946.384202,-70940.443115,22502.260637
402.096509,12583.501014,-79673.931792,13027.624579
402.099020,-19393.395680,-78141.740796,-2072.576638
402.101531,5329.482782,-74924.139704,9326.594869
402.104043,-8882.471304,-71706.538613,7254.018232
402.106554,-8586.388927,-69867.909418,13175.665768
402.109065,-2072.576638,-76456.330700,-4441.235652
402.111577,-9326.594869,-77682.083497,-25611.125593
402.114088,11103.089130,-77682.083497,-21169.889941
402.116600,-16580.613101,-72472.634111,-16580.613101
402.119111,-13471.748144,-69561.471218,-1924.535449
402.121622,5477.523971,-74464.482406,592.164754
402.124134,-13767.830521,-77375.645298,-4589.276840
402.126645,444.123565,-78907.836294,-8882.471304
402.129156,-7402.059420,-77682.083497,2220.617826
402.131668,-148.041188,-74924.139704,15248.242405
402.134179,-15840.407159,-74004.825107,-17172.777854
402.136691,5033.400406,-68182.499322,10066.800811
402.139202,11251.130318,-80899.684589,-10510.924376
402.141713,-23242.466579,-75230.577904,-20281.642811
402.144225,7105.977043,-80899.684589,-12287.418637
402.146736,-16580.613101,-71553.319513,-11251.130318
402.149247,-4885.359217,-72166.195912,-2220.617826
402.151759,-1480.411884,-72932.291410,-11843.295072
402.154270,-8438.347739,-76609.549800,-1332.370696
402.156781,10510.924376,-80746.465489,-5625.565159
402.159293,-19837.519246,-74311.263306,-12435.459826
402.161804,6513.812290,-72166.195912,6957.935855
402.164316,-12139.377449,-70480.785816,19985.560434
402.166827,-296.082377,-71706.538613,14063.912898
402.169338,-1480.411884,-77069.207099,16728.654289
402.171850,-9474.636058,-78294.959896,3256.906145
402.174361,2960.823768,-75537.016103,2368.659014
402.176872,-6365.771101,-68642.156621,-1036.288319
402.179384,6069.688724,-71553.319513,16136.489536
402.181895,-7698.141797,-69101.813920,17912.983796
402.184407,2960.823768,-77222.426198,-33457.308578
402.186918,-22502.260637,-75690.235202,-3108.864956
402.189442,7402.059420,-83044.751983,34641.638086
402.191965,-21169.889941,-70174.347617,-16728.654289
402.194489,-15692.365970,-69101.813920,30792.567187
402.197013,7846.182985,-75996.673402,18505.148550
402.199536,-21169.889941,-75383.797003,4145.153275
402.202060,14063.912898,-83504.409282,10214.842000
402.204584,-22946.384202,-73238.729609,-296.082377
402.207108,1332.370696,-73545.167808,22058.137072
402.209631,-5625.565159,-70787.224015,7994.224174
402.212155,-18801.230927,-71400.100414,-10658.965565
402.214679,7402.059420,-81359.341888,-28719.990550
402.217202,-10066.800811,-74004.825107,-22650.301825
402.219726,3849.070898,-73698.386908,-13175.665768
402.222250,-20429.683999,-70940.443115,888.247130
402.224774,8290.306550,-74158.044206,-1184.329507
402.227297,-12583.501014,-78601.398095,-1776.494261
402.229821,-2664.741391,-76762.768900,-15100.201217
402.232345,-592.164754,-70787.224015,-10807.006753
402.234868,444.123565,-74158.044206,-6365.771101
402.237392,-10214.842000,-67416.403824,-4589.276840
402.239916,-2368.659014,-71400.100414,-11399.171507
402.242440,-2368.659014,-75996.673402,-13323.706956
402.244963,-444.123565,-78601.398095,-22946.384202
402.247487,-9918.759623,-73391.948708,-23982.672521
402.250011,-1924.535449,-70480.785816,-14508.036463
402.252534,-2220.617826,-70327.566716,-9326.594869
402.255058,-3552.988522,-73851.606007,-4737.318029
402.257582,-888.247130,-76609.549800,-9178.553681
402.260106,-4885.359217,-78294.959896,-1628.453072
402.262629,-10807.006753,-76762.768900,-6069.688724
402.265153,-3256.906145,-70480.785816,17320.819043
402.267677,-3404.947333,-71093.662214,17172.777854
402.270200,-10066.800811,-72166.195912,18357.107362
402.272724,2072.576638,-79673.931792,6661.853478
402.275248,-5477.523971,-78907.836294,3256.906145
402.277772,-6217.729913,-76609.549800,444.123565
402.280295,-1776.494261,-73085.510509,18209.066173
402.282819,-7105.977043,-72625.853210,17912.983796
402.285343,-740.205942,-75383.797003,22354.219448
402.287866,-6069.688724,-77375.645298,-8438.347739
402.290401,-9030.512492,-79520.712692,12435.459826
402.292935,-1332.370696,-77069.207099,1924.535449
402.295469,-444.123565,-70787.224015,20429.683999
402.298003,-5033.400406,-72166.195912,31236.690752
402.300537,1332.370696,-75690.235202,15100.201217
402.303071,-5921.647536,-80133.589091,13767.830521
402.305606,-1924.535449,-79827.150892,1036.288319
402.308140,-5181.441594,-71246.881314,6069.688724
402.310674,1924.535449,-72319.415011,14656.077652
402.313208,-9918.759623,-70940.443115,-2664.741391
402.315742,-444.123565,-77069.207099,-22946.384202
402.318276,-4441.235652,-76915.987999,-26203.290347
402.320811,-3849.070898,-74464.482406,-19837.519246
402.323345,-592.164754,-71706.538613,-2220.617826
402.325879,-9030.512492,-74311.263306,1332.370696
402.328413,-4145.153275,-74770.920605,-4293.194464
402.330947,-148.041188,-79367.493593,-9326.594869
402.333481,1480.411884,-75077.358804,-29756.278868
402.336016,-11991.336260,-74464.482406,-15544.324782
402.338550,-0.000000,-70327.566716,2368.659014
402.341084,-4441.235652,-70480.785816,-21614.013506
402.343618,-5329.482782,-77069.207099,-9622.677246
402.346152,19541.436869,-82891.532884,-16876.695478
402.348686,-27831.743419,-77528.864398,-24574.837274
402.351221,6513.812290,-73238.729609,-6365.771101
402.353755,-7846.182985,-69408.252119,-16136.489536
402.356289,-9474.636058,-71093.662214,-1480.411884
402.358823,6365.771101,-77528.864398,-8290.306550
402.361357,-8734.430116,-74617.701505,-4885.359217
402.363891,-1924.535449,-78754.617194,-2368.659014
402.366426,-11399.171507,-71093.662214,10066.800811
402.368960,1776.494261,-69867.909418,24426.796086
402.371494,-2220.617826,-72166.195912,20873.807564
402.374028,1480.411884,-76303.111601,12435.459826
402.376562,-3997.112087,-81359.341888,4737.318029
402.379096,-10807.006753,-76303.111601,-4441.235652
402.381631,-2220.617826,-70940.443115,7105.977043
402.384165,-1184.329507,-70327.566716,25611.125593
402.386699,-3256.906145,-74311.263306,2368.659014
402.389233,-2220.617826,-74311.263306,-8586.388927
402.391776,-5921.647536,-76303.111601,2812.782580
402.394319,-10214.842000,-77222.426198,-740.205942
402.396862,3108.864956,-73851.606007,21169.889941
402.399405,-7550.100608,-69101.813920,25167.002028
402.401947,-8290.306550,-72779.072310,9474.636058
402.404490,-2220.617826,-78294.959896,5033.400406
402.407033,-5329.482782,-79520.712692,2368.659014
402.409576,-592.164754,-73391.948708,8882.471304
402.412119,-3256.906145,-71553.319513,14508.036463
402.414662,-6365.771101,-71093.662214,1628.453072
402.417205,-3701.029710,-74004.825107,-18209.066173
402.419748,2368.659014,-76149.892501,-23982.672521
402.422290,-13175.665768,-73698.386908,-15988.448347
402.424833,-5477.523971,-73238.729609,-6069.688724
402.427376,-2072.576638,-73391.948708,1480.411884
402.429919,-10066.800811,-76609.549800,-888.247130
402.432462,4441.235652,-80133.589091,1924.535449
402.435005,-7846.182985,-75996.673402,-13471.748144
402.437548,444.123565,-76149.892501,23982.672521
402.440090,4441.235652,-75077.358804,-16580.613101
402.442633,-19097.313304,-70174.347617,14211.954086
402.445176,7698.141797,-76149.892501,-13619.789333
402.447719,-11103.089130,-75996.673402,-26203.290347
402.450262,5181.441594,-77069.207099,-14656.077652
402.452805,-8734.430116,-71400.100414,-26647.413912
402.455348,-5181.441594,-68029.280222,-4737.318029
402.457891,11251.130318,-76609.549800,-0.000000
402.460433,-17764.942608,-73391.948708,-7698.141797
402.462976,11547.212695,-81512.560987,-3849.070898
402.465519,-14359.995275,-75843.454302,-2516.700203
402.468062,-5773.606348,-71400.100414,7698.141797
402.470605,-148.041188,-71859.757712,23390.507767
402.473148,-9474.636058,-71706.538613,14952.160028
402.475691,2812.782580,-77835.302597,16580.613101
402.478234,-7846.182985,-79673.931792,3404.947333
402.480776,-7846.182985,-76915.987999,1924.535449
402.483319,-7846.182985,-72319.415011,14359.995275
402.485862,5477.523971,-70940.443115,19837.519246
402.488405,-3256.906145,-73391.948708,-23982.672521
402.490948,-11547.212695,-74770.920605,5773.606348
402.493498,9474.636058,-82125.437386,11103.089130
402.496049,-740.205942,-71859.757712,-5329.482782
402.498599,-19689.478057,-68948.594820,30792.567187
402.501149,14211.954086,-73085.510509,13471.748144
402.503699,-20281.642811,-72319.415011,12731.542202
402.506250,6809.894666,-82585.094684,13175.665768
402.508800,-17172.777854,-74617.701505,-4145.153275
402.511350,296.082377,-74770.920605,16284.530724
402.513900,1332.370696,-72779.072310,2664.741391
402.516451,-12879.583391,-70787.224015,-13175.665768
402.519001,2812.782580,-78294.959896,-25759.166782
402.521551,-3552.988522,-73545.167808,-21614.013506
402.524101,444.123565,-75077.358804,-12435.459826
402.526652,-18505.148550,-71706.538613,-4145.153275
402.529202,10214.842000,-75383.797003,1332.370696
402.531752,-15544.324782,-77528.864398,-3849.070898
402.534302,-5329.482782,-72779.072310,-20429.683999
402.536853,5329.482782,-76609.549800,-27979.784608
402.539403,-10807.006753,-69255.033019,-1776.494261
402.541953,2516.700203,-71553.319513,8734.430116
402.544504,-13323.706956,-74770.920605,3256.906145
402.547054,6957.935855,-77528.864398,-24574.837274
402.549604,-14359.995275,-79520.712692,-15692.365970
402.552154,-5625.565159,-74924.139704,-21465.972318
402.554705,-296.082377,-70174.347617,-10214.842000
402.557255,-5921.647536,-70787.224015,-8586.388927
402.559805,148.041188,-75077.358804,-1036.288319
402.562355,1184.329507,-77682.083497,-6069.688724
402.564906,-9178.553681,-77988.521696,-4441.235652
402.567456,-2220.617826,-73391.948708,10214.842000
402.570006,-5625.565159,-70634.004916,17468.860231
402.572556,-5477.523971,-70634.004916,19985.560434
402.575107,4589.276840,-77835.302597,11991.336260
402.577657,-9770.718434,-79367.493593,5477.523971
402.580207,-2960.823768,-77682.083497,-2812.782580
402.582758,-2960.823768,-74924.139704,12139.377449
402.585308,-5329.482782,-68795.375720,3256.906145
402.587858,4293.194464,-71553.319513,25315.043216
402.590408,-3552.988522,-78448.178995,-8438.347739
402.592959,-14359.995275,-78141.740796,-2220.617826
402.595514,4293.194464,-71706.538613,4589.276840
402.598070,-9326.594869,-70634.004916,14211.954086
402.600626,4441.235652,-66803.527426,22354.219448
402.603181,-1628.453072,-74004.825107,17172.777854
402.605737,-9326.594869,-76609.549800,9326.594869
402.608293,-5477.523971,-78907.836294,-592.164754
402.610848,-12287.418637,-72012.976812,8734.430116
402.613404,2812.782580,-71553.319513,3997.112087
402.615960,-9030.512492,-72012.976812,-10658.965565
402.618515,-1924.535449,-76149.892501,-27683.702231
402.621071,2072.576638,-75537.016103,-18949.272115
402.623626,-11399.171507,-74464.482406,-17468.860231
402.626182,-3256.906145,-72166.195912,-3997.112087
402.628738,-0.000000,-74464.482406,2664.741391
402.631293,-7402.059420,-77069.207099,-3256.906145
402.633849,-5033.400406,-76149.892501,-11991.336260
402.636405,-6217.729913,-74617.701505,-9474.636058
402.638960,-8734.430116,-75843.454302,-4737.318029
402.641516,-3997.112087,-71553.319513,-8586.388927
402.644072,-6809.894666,-72932.291410,9326.594869
402.646627,-3849.070898,-81052.903688,-18505.148550
402.649183,-3256.906145,-72779.072310,-29904.320057
402.651739,-3997.112087,-74770.920605,-22058.137072
402.654294,-10362.883188,-68182.499322,-20133.601622
402.656850,2368.659014,-70940.443115,-6217.729913
402.659406,-6217.729913,-74158.044206,-4293.194464
402.661961,-888.247130,-77528.864398,-5181.441594
402.664517,-8882.471304,-78448.178995,-7698.141797
402.667073,-11251.130318,-72472.634111,10066.800811
402.669628,2960.823768,-70634.004916,21465.972318
402.672184,-7402.059420,-70480.785816,21910.095883
402.674740,3701.029710,-76915.987999,11991.336260
402.677295,-11991.336260,-79520.712692,5625.565159
402.679851,-2368.659014,-79673.931792,-1184.329507
402.682407,-6661.853478,-75690.235202,11843.295072
402.684962,-8586.388927,-66190.651027,23538.548956
402.687518,1628.453072,-71246.881314,22946.384202
402.690074,-888.247130,-74464.482406,-4145.153275
402.692629,-11843.295072,-76456.330700,-23834.631332
402.695185,-888.247130,-79980.369991,13175.665768
402.697745,-1480.411884,-71553.319513,14063.912898
402.700306,-10066.800811,-68335.718422,27535.661042
402.702866,2812.782580,-74617.701505,15840.407159
402.705426,-13027.624579,-78754.617194,9030.512492
402.707987,1332.370696,-79367.493593,1332.370696
402.710547,-7698.141797,-74924.139704,2368.659014
402.713107,-9770.718434,-70940.443115,9178.553681
402.715668,3404.947333,-73698.386908,-15396.283594
402.718228,-4589.276840,-74311.263306,-18653.189738
402.720789,4293.194464,-75383.797003,-23834.631332
402.723349,-3108.864956,-74770.920605,-10955.047942
402.725909,-7550.100608,-75077.358804,-4589.276840
402.728470,-1924.535449,-75537.016103,444.123565
402.731030,-1332.370696,-78294.959896,3701.029710
402.733591,-8438.347739,-74617.701505,-14359.995275
402.736151,3256.906145,-75996.673402,10955.047942
402.738711,-8438.347739,-73545.167808,-16284.530724
402.741272,-2072.576638,-69255.033019,10807.006753
402.743832,13915.871710,-75537.016103,-13767.830521
402.746392,-13767.830521,-74617.701505,-24574.837274
402.748953,8142.265362,-76149.892501,-17616.901420
402.751513,-5921.647536,-71706.538613,-23834.631332
402.754074,-12435.459826,-70021.128517,-5921.647536
402.756634,1036.288319,-72319.415011,-4441.235652
402.759194,-5033.400406,-73851.606007,-2072.576638
402.761755,444.123565,-79214.274493,-13175.665768
402.764315,-9622.677246,-74617.701505,2220.617826
402.766875,-2368.659014,-74311.263306,12583.501014
402.769436,-592.164754,-69561.471218,18357.107362
402.771996,-2072.576638,-73085.510509,18357.107362
402.774557,-1776.494261,-76915.987999,13471.748144
402.777117,-6069.688724,-79673.931792,740.205942
402.779648,-10955.047942,-73851.606007,2664.741391
402.782179,-1036.288319,-69255.033019,-7254.018232
402.784710,-6809.894666,-70787.224015,-4441.235652
402.787241,1036.288319,-69101.813920,26499.372724
402.789772,1480.411884,-80899.684589,-28275.866984
402.792303,-24722.878463,-70174.347617,-7254.018232
402.794834,24130.713709,-79214.274493,15248.242405
402.797365,-28423.908173,-62666.611736,7254.018232
402.799897,-2368.659014,-73698.386908,35233.802839
402.802428,2368.659014,-76456.330700,5921.647536
402.804959,-12731.542202,-77069.207099,8438.347739
402.807490,7846.182985,-80133.589091,1776.494261
402.810021,-17468.860231,-69561.471218,444.123565
402.812552,13027.624579,-75383.797003,-4737.318029
402.815083,-13323.706956,-71093.662214,-23834.631332
402.817614,5773.606348,-73851.606007,-20429.683999
402.820145,-2072.576638,-76149.892501,-13471.748144
402.822676,-10214.842000,-73238.729609,-12879.583391
402.825207,2664.741391,-77375.645298,3701.029710
402.827738,-10066.800811,-75230.577904,-4885.359217
402.830269,10362.883188,-73698.386908,-9326.594869
402.832800,-13027.624579,-76762.768900,-24722.878463
402.835332,-444.123565,-70787.224015,-12435.459826
402.837863,-1036.288319,-73698.386908,12731.542202
402.840394,-6513.812290,-74464.482406,-1036.288319
402.842925,-740.205942,-80440.027290,-12583.501014
402.845456,-8142.265362,-78907.836294,-11547.212695
402.847987,296.082377,-73391.948708,-26647.413912
402.850518,-8438.347739,-72012.976812,-4885.359217
402.853049,-2960.823768,-71859.757712,-9030.512492
402.855580,-1776.494261,-74464.482406,1480.411884
402.858111,-1628.453072,-78294.959896,-4145.153275
402.860642,-8438.347739,-77069.207099,3404.947333
402.863173,-11251.130318,-74464.482406,13027.624579
402.865704,-2516.700203,-72166.195912,24426.796086
402.868235,-5625.565159,-71246.881314,17468.860231
402.870767,740.205942,-76915.987999,15248.242405
402.873298,-4441.235652,-78601.398095,1332.370696
402.875829,-14508.036463,-74770.920605,1332.370696
402.878360,-3256.906145,-74004.825107,12435.459826
402.880900,-592.164754,-69255.033019,24870.919651
402.883441,-5033.400406,-75843.454302,5773.606348
402.885982,-4589.276840,-76609.549800,-10214.842000
402.888523,-148.041188,-79673.931792,-6069.688724
402.891063,-7698.141797,-70940.443115,11103.089130
402.893604,1924.535449,-69408.252119,18505.148550
402.896145,-2960.823768,-72779.072310,23094.425390
402.898685,-2664.741391,-78294.959896,20281.642811
402.901226,-4589.276840,-78601.398095,888.247130
402.903767,-6661.853478,-76149.892501,5477.523971
402.906307,1776.494261,-73391.948708,3701.029710
402.908848,-8438.347739,-72319.415011,-8438.347739
402.911389,-296.082377,-73698.386908,-19689.478057
402.913930,1036.288319,-74464.482406,-18357.107362
402.916470,-6809.894666,-73851.606007,-15396.283594
402.919011,-7402.059420,-74311.263306,-5625.565159
402.921552,-2812.782580,-77222.426198,444.123565
402.924092,-11695.253884,-77528.864398,3404.947333
402.926633,5625.565159,-75230.577904,-19689.478057
402.929174,-10510.924376,-76762.768900,-15248.242405
402.931714,-6069.688724,-71246.881314,-6217.729913
402.934255,-6217.729913,-71706.538613,-19541.436869
402.936796,-12287.418637,-69101.813920,-11399.171507
402.939336,11695.253884,-78601.398095,-18653.189738
402.941877,-22354.219448,-72319.415011,-27091.537477
402.944418,8142.265362,-75996.673402,-16728.654289
402.946959,-23538.548956,-69101.813920,-20429.683999
402.949499,2368.659014,-72012.976812,296.082377
402.952040,14952.160028,-77835.302597,148.041188
402.954581,-16728.654289,-73545.167808,-11103.089130
402.957121,9770.718434,-77988.521696,1924.535449
402.959662,-21021.848753,-72012.976812,14211.954086
402.962203,9918.759623,-71706.538613,19837.519246
402.964743,-7994.224174,-73238.729609,19689.478057
402.967284,3404.947333,-76762.768900,10510.924376
402.969825,1776.494261,-80746.465489,-1332.370696
402.972365,-17764.942608,-76609.549800,4441.235652
402.974906,3552.988522,-75843.454302,13471.748144
402.977447,-9622.677246,-71400.100414,25611.125593
402.979988,1332.370696,-75690.235202,2368.659014
402.982536,-9918.759623,-75383.797003,3701.029710
402.985084,3552.988522,-78294.959896,3108.864956
402.987633,-3552.988522,-72625.853210,10807.006753
402.990181,-11399.171507,-71400.100414,31236.690752
402.992730,4737.318029,-73698.386908,13915.871710
402.995278,-8586.388927,-75690.235202,19393.395680
402.997826,148.041188,-79827.150892,296.082377
403.000375,-5773.606348,-74770.920605,1332.370696
403.002923,-5773.606348,-74311.263306,2368.659014
403.005472,2072.576638,-72779.072310,-14656.077652
403.008020,-1184.329507,-72166.195912,-23982.672521
403.010569,-5625.565159,-72319.415011,-13323.706956
403.013117,-1036.288319,-74924.139704,-17912.983796
403.015665,-9622.677246,-75690.235202,-4589.276840
403.018214,3849.070898,-75843.454302,-3404.947333
403.020762,-5181.441594,-70480.785816,-10658.965565
403.023311,2368.659014,-70940.443115,-20577.725188
403.025859,-5625.565159,-75843.454302,-25611.125593
403.028407,-12879.583391,-75077.358804,-10214.842000
403.030956,3404.947333,-75230.577904,11547.212695
403.033504,-8586.388927,-75537.016103,-14508.036463
403.036053,-4293.194464,-79214.274493,-6809.894666
403.038601,-6957.935855,-77528.864398,-20429.683999
403.041150,-10955.047942,-74004.825107,-11547.212695
403.043698,-1628.453072,-72472.634111,-9474.636058
403.046246,-5181.441594,-74004.825107,-7550.100608
403.048795,444.123565,-76609.549800,7254.018232
403.051343,-9474.636058,-77222.426198,-13175.665768
403.053892,-9326.594869,-70787.224015,10955.047942
403.056440,6069.688724,-74617.701505,18357.107362
403.058988,-9030.512492,-70787.224015,21317.931130
403.061537,13471.748144,-77222.426198,16876.695478
403.064085,-8290.306550,-79520.712692,2664.741391
403.066634,-13323.706956,-77988.521696,2516.700203
403.069182,1628.453072,-72779.072310,-7105.977043
403.071731,-10955.047942,-69714.690318,-12583.501014
403.074279,5477.523971,-71553.319513,20577.725188
403.076827,-7846.182985,-72319.415011,3256.906145
403.079376,-5477.523971,-78294.959896,7994.224174
403.081924,-740.205942,-79061.055394,-888.247130
403.084479,-8290.306550,-68182.499322,12287.418637
403.087034,3701.029710,-70327.566716,13175.665768
403.089589,-7994.224174,-71093.662214,12435.459826
403.092144,-0.000000,-76762.768900,8142.265362
403.094699,-10066.800811,-76915.987999,3256.906145
403.097254,-1184.329507,-74158.044206,-4145.153275
403.099809,-3256.906145,-73545.167808,-14211.954086
403.102364,-6069.688724,-71859.757712,-23390.507767
403.104919,2516.700203,-72166.195912,-18949.272115
403.107474,-4737.318029,-73851.606007,-13027.624579
403.110029,-11991.336260,-75077.358804,-10510.924376
403.112584,2812.782580,-79673.931792,1924.535449
403.115139,-15248.242405,-77988.521696,1628.453072
403.117694,1332.370696,-74311.263306,888.247130
403.120249,-3108.864956,-76149.892501,25018.960840
403.122803,-4293.194464,-72932.291410,-44264.315332
403.125358,-18061.024985,-70940.443115,-7550.100608
403.127913,11251.130318,-75383.797003,-7698.141797
403.130468,-19689.478057,-76149.892501,-31828.855506
403.133023,3552.988522,-75537.016103,-10214.842000
403.135578,-13323.706956,-73238.729609,-30644.525999
403.138133,-9918.759623,-71246.881314,-5921.647536
403.140688,19245.354492,-76762.768900,-5625.565159
403.143243,-17468.860231,-72625.853210,-12731.542202
403.145798,7550.100608,-79367.493593,-1924.535449
403.148353,-15544.324782,-73085.510509,3256.906145
403.150908,-1628.453072,-70327.566716,21021.848753
403.153463,-3108.864956,-72779.072310,22502.260637
403.156018,-1184.329507,-74004.825107,14656.077652
403.158573,-888.247130,-80286.808190,11399.171507
403.161128,-12435.459826,-72932.291410,-4441.235652
403.163683,2812.782580,-74004.825107,4885.359217
403.166238,-11103.089130,-67876.061123,19393.395680
403.168793,4441.235652,-74464.482406,4145.153275
403.171348,-8882.471304,-75383.797003,-10214.842000
403.173902,-5773.606348,-75996.673402,-1332.370696
403.176457,-1184.329507,-79061.055394,13619.789333
403.179012,-9030.512492,-70634.004916,18801.230927
403.181567,-444.123565,-72012.976812,28275.866984
403.184122,-6809.894666,-74770.920605,18061.024985
403.186683,2072.576638,-75537.016103,7105.977043
403.189243,-10955.047942,-76456.330700,1924.535449
403.191803,-4145.153275,-74617.701505,2960.823768
403.194364,-1036.288319,-72779.072310,-17616.901420
403.196924,-7994.224174,-71246.881314,-23538.548956
403.199484,296.082377,-72012.976812,-16284.530724
403.202045,-3997.112087,-73545.167808,-11251.130318
403.204605,-10658.965565,-74617.701505,-9918.759623
403.207165,296.082377,-80133.589091,1628.453072
403.209726,-13767.830521,-77835.302597,-0.000000
403.212286,2516.700203,-77528.864398,9326.594869
403.214846,-4885.359217,-74158.044206,-15248.242405
403.217407,-15840.407159,-70327.566716,-8438.347739
403.219967,3256.906145,-73545.167808,-5921.647536
403.222527,-7846.182985,-76762.768900,-15988.448347
403.225088,1184.329507,-76762.768900,-20133.601622
403.227648,-1036.288319,-75537.016103,-22502.260637
403.230208,-10214.842000,-69255.033019,-15840.407159
403.232769,4737.318029,-72779.072310,-13471.748144
403.235329,-10510.924376,-73545.167808,-148.041188
403.237889,1480.411884,-78141.740796,-9178.553681
403.240450,-5921.647536,-77988.521696,-148.041188
403.243010,-15100.201217,-73851.606007,10066.800811
403.245570,7105.977043,-72625.853210,29460.196492
403.248131,-10658.965565,-70787.224015,21614.013506
403.250691,7846.182985,-76609.549800,19837.519246
403.253251,-12435.459826,-78141.740796,2368.659014
403.255812,-17024.736666,-78907.836294,296.082377
403.258372,2072.576638,-74464.482406,2812.782580
403.260932,-5625.565159,-70021.128517,25759.166782
403.263493,2664.741391,-74770.920605,7105.977043
403.266053,-4293.194464,-75690.235202,10214.842000
403.268613,-1480.411884,-82125.437386,1924.535449
403.271174,-6809.894666,-76609.549800,13323.706956
403.273734,-2664.741391,-69867.909418,26351.331535
403.276294,-4885.359217,-72932.291410,18209.066173
403.278855,-2516.700203,-74617.701505,28423.908173
403.281415,-6217.729913,-78754.617194,2516.700203
403.283975,-148.041188,-75690.235202,2812.782580
403.286536,-10807.006753,-75690.235202,-9326.594869
403.289101,-1332.370696,-72012.976812,-20281.642811
403.291666,3701.029710,-71706.538613,-21317.931130
403.294231,-10066.800811,-70940.443115,-18505.148550
403.296796,2072.576638,-75077.358804,-8586.388927
403.299361,-10955.047942,-76303.111601,-9474.636058
403.301926,1924.535449,-76303.111601,-4441.235652
403.304491,-3997.112087,-76149.892501,-5921.647536
403.307056,-6217.729913,-67876.061123,-7994.224174
403.309621,3108.864956,-75843.454302,-1332.370696
403.312186,-12435.459826,-70787.224015,-26055.249158
403.314751,-592.164754,-67722.842023,-11843.295072
403.317316,8438.347739,-77528.864398,-25907.207970
403.319880,-13915.871710,-71093.662214,-29608.237680
403.322445,9326.594869,-75077.358804,-15692.365970
403.325010,-20133.601622,-67416.403824,-19837.519246
403.327575,3701.029710,-72625.853210,148.041188
403.330140,-9178.553681,-78448.178995,-6957.935855
403.332705,-18357.107362,-74770.920605,-14359.995275
403.335270,7402.059420,-78141.740796,3849.070898
403.337835,-18357.107362,-70327.566716,19393.395680
403.340400,8734.430116,-71246.881314,17912.983796
403.342965,-9918.759623,-72166.195912,24426.796086
403.345530,-1628.453072,-77835.302597,7402.059420
403.348095,-6365.771101,-75843.454302,-3404.947333
403.350660,-19393.395680,-73238.729609,-7994.224174
403.353225,4145.153275,-75230.577904,-8882.471304
403.355790,-9474.636058,-69714.690318,13323.706956
403.358355,3997.112087,-73545.167808,20133.601622
403.360920,-4737.318029,-79980.369991,-11103.089130
403.363485,-9474.636058,-73545.167808,2368.659014
403.366050,-148.041188,-75843.454302,14804.118840
403.368615,-8882.471304,-69714.690318,25167.002028
403.371180,6069.688724,-74158.044206,29016.072926
403.373745,-5625.565159,-76609.549800,7846.182985
403.376310,-11103.089130,-76303.111601,7994.224174
403.378875,-4293.194464,-77069.207099,-7550.100608
403.381440,-4441.235652,-73545.167808,-18653.189738
403.384005,-2220.617826,-73085.510509,-20429.683999
403.386570,-1332.370696,-70940.443115,-18061.024985
403.389135,-2072.576638,-72625.853210,-9622.677246
403.391703,-15396.283594,-75843.454302,-8438.347739
403.394271,-444.123565,-82125.437386,-1036.288319
403.396839,-11547.212695,-77988.521696,-4737.318029
403.399407,7402.059420,-76915.987999,444.123565
403.401975,-10955.047942,-72625.853210,-24130.713709
403.404543,-4441.235652,-72779.072310,-19837.519246
403.407111,-4293.194464,-73545.167808,2516.700203
403.409679,-5329.482782,-75230.577904,-15544.324782
403.412247,148.041188,-75230.577904,-22502.260637
403.414815,-5033.400406,-74770.920605,-19097.313304
403.417383,-5625.565159,-70480.785816,-21169.889941
403.419951,-2664.741391,-71093.662214,-2664.741391
403.422519,-5477.523971,-75383.797003,-1332.370696
403.425087,-1628.453072,-78141.740796,-1628.453072
403.427655,8290.306550,-76303.111601,6513.812290
403.430223,-18505.148550,-72319.415011,15692.365970
403.432791,8734.430116,-70940.443115,26055.249158
403.435359,-5329.482782,-73238.729609,21021.848753
403.437927,-2960.823768,-77222.426198,14952.160028
403.440495,-592.164754,-81818.999186,-592.164754
403.443063,-18653.189738,-77835.302597,2516.700203
403.445631,6661.853478,-71246.881314,16580.613101
403.448199,-5329.482782,-69867.909418,22058.137072
403.450767,-6661.853478,-71553.319513,12879.583391
403.453335,1924.535449,-79980.369991,18505.148550
403.455903,-6661.853478,-78754.617194,-4441.235652
403.458471,-10658.965565,-76149.892501,27683.702231
403.461039,1628.453072,-74158.044206,22946.384202
403.463607,-5921.647536,-71093.662214,34345.555709
403.466175,1776.494261,-76149.892501,10214.842000
403.468743,-14656.077652,-76762.768900,5625.565159
403.471311,-3256.906145,-76149.892501,-7846.182985
403.473879,-1332.370696,-75077.358804,-26351.331535
403.476447,-3849.070898,-71093.662214,-22798.343014
403.479015,5033.400406,-72779.072310,-17912.983796
403.481582,-12139.377449,-69255.033019,-8290.306550
403.484150,-7402.059420,-77069.207099,-9178.553681
403.486718,-5921.647536,-81052.903688,592.164754
403.489286,-8438.347739,-77682.083497,-12435.459826
403.491854,3552.988522,-77528.864398,-20873.807564
403.494425,-14656.077652,-68182.499322,-7105.977043
403.496996,9474.636058,-76762.768900,4885.359217
403.499566,-19985.560434,-68182.499322,-39082.873738
403.502137,14508.036463,-75383.797003,-2812.782580
403.504707,5033.400406,-86568.791274,-19097.313304
403.507278,-18801.230927,-73238.729609,-12879.583391
403.509848,11547.212695,-77528.864398,-2812.782580
403.512419,-20281.642811,-68642.156621,-7402.059420
403.514989,10658.965565,-78448.178995,8882.471304
403.517560,-12731.542202,-76762.768900,-18505.148550
403.520130,7846.182985,-77528.864398,5181.441594
403.522701,-3552.988522,-77069.207099,20577.725188
403.525271,-6957.935855,-68335.718422,21021.848753
403.527842,9178.553681,-74770.920605,26055.249158
403.530412,-16136.489536,-75537.016103,14359.995275
403.532983,6957.935855,-76456.330700,-5773.606348
403.535553,-18061.024985,-76149.892501,-148.041188
403.538124,6069.688724,-70174.347617,10955.047942
403.540694,-1924.535449,-71093.662214,2664.741391
403.543265,-12287.418637,-72166.195912,-10066.800811
403.545835,2220.617826,-77528.864398,-148.041188
403.548406,-11843.295072,-74004.825107,5033.400406
403.550976,296.082377,-73238.729609,16432.571912
403.553547,-9326.594869,-72625.853210,27979.784608
