#time,accel_x,accel_y,accel_z
2245.511976,296.082377,-74004.825107,1480.411884
2245.514540,592.164754,-74464.482406,444.123565
2245.517103,148.041188,-74311.263306,296.082377
2245.519666,-0.000000,-74464.482406,1924.535449
2245.522229,-592.164754,-74464.482406,3256.906145
2245.524793,296.082377,-74770.920605,1480.411884
2245.527356,-296.082377,-74617.701505,740.205942
2245.529919,-444.123565,-74004.825107,1480.411884
2245.532482,-740.205942,-74004.825107,2368.659014
2245.535045,-0.000000,-74464.482406,2220.617826
2245.537609,1480.411884,-74311.263306,3552.988522
2245.540172,-888.247130,-74464.482406,444.123565
2245.542735,-296.082377,-73698.386908,740.205942
2245.545298,296.082377,-73698.386908,1924.535449
2245.547862,-444.123565,-74464.482406,1628.453072
2245.550425,296.082377,-74617.701505,2516.700203
2245.552988,888.247130,-74158.044206,-0.000000
2245.555551,-592.164754,-74311.263306,-148.041188
2245.558114,-592.164754,-74311.263306,1184.329507
2245.560678,296.082377,-74770.920605,1036.288319
2245.563241,23538.548956,-73698.386908,1776.494261
2245.565804,-29460.196492,-74617.701505,8142.265362
2245.568367,-2072.576638,-72472.634111,-9030.512492
2245.570931,25018.960840,-72472.634111,-3997.112087
2245.573494,-19097.313304,-74158.044206,2516.700203
2245.576057,20429.683999,-72166.195912,-8438.347739
2245.578620,-12287.418637,-72012.976812,2812.782580
2245.581183,-8882.471304,-74464.482406,-2960.823768
2245.583747,11547.212695,-74158.044206,444.123565
2245.586310,592.164754,-74464.482406,6661.853478
2245.588873,5329.482782,-73698.386908,-5477.523971
2245.591436,1924.535449,-73238.729609,5773.606348
2245.594000,9918.759623,-73698.386908,1628.453072
2245.596563,-9030.512492,-73238.729609,740.205942
2245.599126,-5773.606348,-74158.044206,4589.276840
2245.601685,-13915.871710,-75077.358804,-0.000000
2245.604244,-7105.977043,-74464.482406,4441.235652
2245.606802,-5773.606348,-74464.482406,444.123565
2245.609361,-740.205942,-73391.948708,-1036.288319
2245.611920,-4885.359217,-74311.263306,7550.100608
2245.614479,-47817.303853,-75077.358804,-1036.288319
2245.617038,-0.000000,-73085.510509,2960.823768
2245.619596,-30792.567187,-75690.235202,3108.864956
2245.622155,-1924.535449,-72166.195912,-888.247130
2245.624714,21614.013506,-73545.167808,-5625.565159
2245.627273,7105.977043,-72166.195912,6809.894666
2245.629832,-18949.272115,-75690.235202,10066.800811
2245.632390,3552.988522,-75230.577904,1332.370696
2245.634949,16876.695478,-72932.291410,3997.112087
2245.637508,7550.100608,-75383.797003,4145.153275
2245.640067,-13915.871710,-74311.263306,4293.194464
2245.642626,-3701.029710,-76609.549800,4737.318029
2245.645184,-15396.283594,-76149.892501,2960.823768
2245.647743,-25759.166782,-74004.825107,1036.288319
2245.650302,-2516.700203,-72012.976812,-5181.441594
2245.652861,-11843.295072,-75537.016103,5181.441594
2245.655420,-15100.201217,-74617.701505,3256.906145
2245.657978,-11843.295072,-75537.016103,1480.411884
2245.660537,-3108.864956,-75077.358804,-148.041188
2245.663096,-7402.059420,-74770.920605,5921.647536
2245.665655,-740.205942,-73545.167808,-1036.288319
2245.668214,-3404.947333,-73238.729609,2368.659014
2245.670772,-6661.853478,-74770.920605,5181.441594
2245.673331,-1924.535449,-74311.263306,-1628.453072
2245.675890,-4293.194464,-74158.044206,5329.482782
2245.678449,2072.576638,-75230.577904,-0.000000
2245.681008,-5625.565159,-73698.386908,2220.617826
2245.683566,5181.441594,-72779.072310,1924.535449
2245.686125,13471.748144,-74770.920605,-2368.659014
2245.688684,-1036.288319,-73545.167808,8586.388927
2245.691243,13175.665768,-75537.016103,-4885.359217
2245.693802,-4737.318029,-74004.825107,888.247130
2245.696360,2960.823768,-74464.482406,6365.771101
2245.698919,2368.659014,-72472.634111,-3552.988522
2245.701478,9474.636058,-74004.825107,3849.070898
2245.704035,9474.636058,-74924.139704,-3256.906145
2245.706592,7254.018232,-74770.920605,2368.659014
2245.709149,3701.029710,-76303.111601,2368.659014
2245.711706,13323.706956,-73851.606007,-148.041188
2245.714263,19985.560434,-72932.291410,3256.906145
2245.716819,-1480.411884,-73545.167808,1776.494261
2245.719376,12435.459826,-73698.386908,-888.247130
2245.721933,7105.977043,-75537.016103,2960.823768
2245.724490,5329.482782,-74464.482406,4885.359217
2245.727047,-19245.354492,-73851.606007,1924.535449
2245.729604,31236.690752,-72319.415011,-2812.782580
2245.732161,-22798.343014,-73851.606007,2516.700203
2245.734718,19245.354492,-73851.606007,-6069.688724
2245.737275,28423.908173,-75537.016103,7254.018232
2245.739832,-44116.274143,-76609.549800,7402.059420
2245.742389,54775.239708,-70634.004916,-8586.388927
2245.744946,-12287.418637,-73698.386908,4293.194464
2245.747502,-30644.525999,-76149.892501,444.123565
2245.750059,17468.860231,-73391.948708,-0.000000
2245.752616,-8142.265362,-75230.577904,5329.482782
2245.755173,22354.219448,-75077.358804,-4293.194464
2245.757730,-2960.823768,-73238.729609,7254.018232
2245.760287,9622.677246,-74464.482406,-4441.235652
2245.762844,-0.000000,-74617.701505,5329.482782
2245.765401,1924.535449,-73545.167808,2516.700203
2245.767958,10955.047942,-72472.634111,444.123565
2245.770515,592.164754,-75077.358804,1480.411884
2245.773072,12287.418637,-74004.825107,-740.205942
2245.775629,-1776.494261,-74770.920605,2220.617826
2245.778185,6513.812290,-72932.291410,-3256.906145
2245.780742,-20133.601622,-74617.701505,7254.018232
2245.783299,-4293.194464,-74311.263306,3404.947333
2245.785856,-740.205942,-72932.291410,2664.741391
2245.788413,-2960.823768,-75383.797003,740.205942
2245.790970,2960.823768,-74311.263306,-3404.947333
2245.793527,-6809.894666,-74311.263306,4737.318029
2245.796084,-6661.853478,-74311.263306,-1332.370696
2245.798641,-13323.706956,-74004.825107,10510.924376
2245.801198,-6513.812290,-74464.482406,1036.288319
2245.803755,6661.853478,-74617.701505,-2516.700203
2245.806311,6809.894666,-76609.549800,8438.347739
2245.808866,-6069.688724,-72932.291410,-6809.894666
2245.811422,-19689.478057,-72166.195912,5625.565159
2245.813978,-24278.754898,-73545.167808,2960.823768
2245.816534,-12287.418637,-73698.386908,2960.823768
2245.819090,2812.782580,-74311.263306,-1628.453072
2245.821646,23242.466579,-74770.920605,-2368.659014
2245.824202,-2960.823768,-74617.701505,3849.070898
2245.826758,-25018.960840,-72932.291410,5625.565159
2245.829314,25463.084405,-72472.634111,-1480.411884
2245.831870,-23242.466579,-75843.454302,9178.553681
2245.834426,-35825.967593,-72932.291410,2368.659014
2245.836981,41451.532752,-72319.415011,-9178.553681
2245.839537,-4885.359217,-74617.701505,1776.494261
2245.842093,-19245.354492,-72779.072310,2664.741391
2245.844649,-2072.576638,-71553.319513,-5329.482782
2245.847205,-33309.267390,-74770.920605,6365.771101
2245.849761,3849.070898,-74617.701505,-6957.935855
2245.852317,-23686.590144,-76303.111601,9918.759623
2245.854873,2812.782580,-74770.920605,-2960.823768
2245.857429,-16136.489536,-73851.606007,4145.153275
2245.859985,-15544.324782,-74311.263306,9178.553681
2245.862540,4737.318029,-73698.386908,-2960.823768
2245.865096,-2664.741391,-73851.606007,5921.647536
2245.867652,-148.041188,-75383.797003,-1184.329507
2245.870208,-3997.112087,-73545.167808,740.205942
2245.872764,-4145.153275,-75843.454302,5329.482782
2245.875320,-592.164754,-72779.072310,-1184.329507
2245.877876,444.123565,-73545.167808,3256.906145
2245.880432,19837.519246,-75230.577904,-3256.906145
2245.882988,4737.318029,-74617.701505,5033.400406
2245.885544,4441.235652,-76609.549800,-3108.864956
2245.888099,-888.247130,-73391.948708,296.082377
2245.890655,-10214.842000,-73545.167808,5625.565159
2245.893211,12731.542202,-72319.415011,-1776.494261
2245.895767,12879.583391,-73391.948708,2220.617826
2245.898323,3404.947333,-75383.797003,-3404.947333
2245.900879,8586.388927,-74770.920605,740.205942
2245.903435,7550.100608,-74311.263306,3997.112087
2245.905991,17172.777854,-72319.415011,-1036.288319
2245.908543,14952.160028,-72625.853210,3108.864956
2245.911096,148.041188,-73698.386908,1332.370696
2245.913649,-9326.594869,-74617.701505,-3701.029710
2245.916201,-13767.830521,-73851.606007,-2220.617826
2245.918754,48261.427418,-73085.510509,-5329.482782
2245.921306,-30792.567187,-75077.358804,8882.471304
2245.923859,8142.265362,-73545.167808,1332.370696
2245.926412,31976.896694,-74770.920605,444.123565
2245.928964,22650.301825,-74004.825107,1332.370696
2245.931517,-30496.484810,-75383.797003,4145.153275
2245.934069,8290.306550,-74464.482406,3108.864956
2245.936622,5329.482782,-72472.634111,-0.000000
2245.939175,-32569.061448,-76609.549800,5625.565159
2245.941727,9030.512492,-74311.263306,1628.453072
2245.944280,2368.659014,-75383.797003,740.205942
2245.946832,10807.006753,-74464.482406,-444.123565
2245.949385,-1480.411884,-73851.606007,296.082377
2245.951937,14656.077652,-74158.044206,-444.123565
2245.954490,-888.247130,-74770.920605,4145.153275
2245.957043,6365.771101,-73391.948708,-0.000000
2245.959595,4293.194464,-72932.291410,2664.741391
2245.962148,7698.141797,-74464.482406,444.123565
2245.964700,1036.288319,-74004.825107,-2664.741391
2245.967253,10362.883188,-74464.482406,-1036.288319
2245.969806,-15100.201217,-74770.920605,5773.606348
2245.972358,-14656.077652,-74924.139704,3701.029710
2245.974911,4441.235652,-72779.072310,3997.112087
2245.977463,-12731.542202,-73391.948708,888.247130
2245.980016,15396.283594,-74158.044206,1628.453072
2245.982569,-13175.665768,-74617.701505,888.247130
2245.985121,1332.370696,-74004.825107,2368.659014
2245.987674,-18949.272115,-74004.825107,3701.029710
2245.990226,-14359.995275,-73851.606007,1332.370696
2245.992779,2812.782580,-75690.235202,3108.864956
2245.995332,148.041188,-76303.111601,-1036.288319
2245.997884,8882.471304,-73698.386908,1628.453072
2246.000437,-28719.990550,-74158.044206,-2516.700203
2246.002989,-5181.441594,-72012.976812,2220.617826
2246.005542,-26943.496289,-75690.235202,6069.688724
2246.008095,3108.864956,-72932.291410,-5181.441594
2246.010645,34493.596897,-74004.825107,-148.041188
2246.013196,-20577.725188,-76762.768900,7550.100608
2246.015747,-14508.036463,-72932.291410,2664.741391
2246.018298,6957.935855,-73238.729609,-1628.453072
2246.020849,1184.329507,-73851.606007,1480.411884
2246.023400,8142.265362,-75690.235202,7550.100608
2246.025951,-24278.754898,-74617.701505,5773.606348
2246.028502,17172.777854,-74617.701505,3701.029710
2246.031052,6957.935855,-75996.673402,5033.400406
2246.033603,7105.977043,-72012.976812,1776.494261
2246.036154,5773.606348,-74770.920605,-444.123565
2246.038705,-24722.878463,-76609.549800,6217.729913
2246.041256,6365.771101,-74924.139704,-296.082377
2246.043807,-18949.272115,-74004.825107,3404.947333
2246.046358,3404.947333,-74464.482406,2664.741391
2246.048909,-740.205942,-74770.920605,592.164754
2246.051459,-8882.471304,-73698.386908,4441.235652
2246.054010,6217.729913,-75690.235202,-592.164754
2246.056561,-6513.812290,-73085.510509,4737.318029
2246.059112,-1924.535449,-74617.701505,-444.123565
2246.061663,-8290.306550,-72779.072310,-444.123565
2246.064214,1332.370696,-73391.948708,5477.523971
2246.066765,26647.413912,-75077.358804,-5033.400406
2246.069315,-1480.411884,-73698.386908,9326.594869
2246.071866,10066.800811,-76456.330700,-5625.565159
2246.074417,-9918.759623,-73698.386908,3404.947333
2246.076968,1776.494261,-75383.797003,5625.565159
2246.079519,4737.318029,-72625.853210,-1776.494261
2246.082070,10658.965565,-74158.044206,5181.441594
2246.084621,9622.677246,-76149.892501,-5625.565159
2246.087172,2220.617826,-72779.072310,-148.041188
2246.089722,6217.729913,-74770.920605,888.247130
2246.092272,14508.036463,-73698.386908,3256.906145
2246.094822,5921.647536,-74311.263306,8586.388927
2246.097372,21762.054695,-72166.195912,-5181.441594
2246.099922,-592.164754,-75383.797003,6957.935855
2246.102472,-30052.361245,-75537.016103,-1332.370696
2246.105022,1036.288319,-73238.729609,-5921.647536
2246.107572,28127.825796,-75077.358804,2516.700203
2246.110122,-7698.141797,-74004.825107,3997.112087
2246.112672,-6365.771101,-72625.853210,-1036.288319
2246.115222,-1776.494261,-74464.482406,-740.205942
2246.117772,21169.889941,-73851.606007,-3849.070898
2246.120322,-6069.688724,-73391.948708,1332.370696
2246.122872,9030.512492,-74004.825107,-4885.359217
2246.125422,16432.571912,-74770.920605,1776.494261
2246.127972,12583.501014,-74617.701505,2072.576638
2246.130522,15100.201217,-73698.386908,-1776.494261
2246.133072,-1184.329507,-74004.825107,2072.576638
2246.135622,16728.654289,-74464.482406,1480.411884
2246.138172,-6217.729913,-73851.606007,3256.906145
2246.140722,12879.583391,-73851.606007,-2220.617826
2246.143272,7254.018232,-74158.044206,1036.288319
2246.145822,5181.441594,-74464.482406,3404.947333
2246.148372,4293.194464,-74311.263306,-1924.535449
2246.150922,6957.935855,-73698.386908,740.205942
2246.153472,-14952.160028,-74617.701505,3552.988522
2246.156022,-14952.160028,-75383.797003,1332.370696
2246.158572,-5329.482782,-73391.948708,4737.318029
2246.161122,-444.123565,-73851.606007,-1332.370696
2246.163672,3404.947333,-74617.701505,3108.864956
2246.166222,-2516.700203,-74924.139704,1332.370696
2246.168772,-2960.823768,-73851.606007,-1184.329507
2246.171322,-20281.642811,-74464.482406,6069.688724
2246.173872,-4441.235652,-72779.072310,888.247130
2246.176422,-6513.812290,-74617.701505,4293.194464
2246.178972,-9030.512492,-76303.111601,-1184.329507
2246.181522,-3256.906145,-75996.673402,4145.153275
2246.184072,-5625.565159,-76149.892501,2664.741391
2246.186622,18209.066173,-73085.510509,592.164754
2246.189172,-6957.935855,-74311.263306,9178.553681
2246.191722,15988.448347,-73698.386908,-3997.112087
2246.194273,-45152.562462,-76149.892501,9918.759623
2246.196824,28275.866984,-74004.825107,-8882.471304
2246.199374,24278.754898,-70940.443115,-8586.388927
2246.201925,-25315.043216,-75077.358804,6809.894666
2246.204476,-25315.043216,-73391.948708,3701.029710
2246.207027,17024.736666,-73238.729609,-592.164754
2246.209577,-17616.901420,-73851.606007,-4145.153275
2246.212128,20429.683999,-74004.825107,1628.453072
2246.214679,-2812.782580,-72319.415011,1776.494261
2246.217230,-24722.878463,-74158.044206,4441.235652
2246.219780,21910.095883,-72472.634111,-2368.659014
2246.222331,-15396.283594,-73698.386908,9178.553681
2246.224882,9030.512492,-73545.167808,-4441.235652
2246.227432,-12731.542202,-73238.729609,6217.729913
2246.229983,3849.070898,-73851.606007,-0.000000
2246.232534,-3108.864956,-73545.167808,2220.617826
2246.235085,-13471.748144,-74004.825107,7846.182985
2246.237635,9770.718434,-73391.948708,-5625.565159
2246.240186,-15100.201217,-74924.139704,9178.553681
2246.242737,9326.594869,-74770.920605,-1924.535449
2246.245287,1480.411884,-73391.948708,2516.700203
2246.247838,17616.901420,-75690.235202,-592.164754
2246.250389,-1776.494261,-74004.825107,3256.906145
2246.252940,11103.089130,-75383.797003,-2072.576638
2246.255490,-3701.029710,-74770.920605,1036.288319
2246.258041,-8586.388927,-72472.634111,4441.235652
2246.260592,16136.489536,-73545.167808,-2812.782580
2246.263142,5921.647536,-73698.386908,2664.741391
2246.265693,9770.718434,-74770.920605,-1924.535449
2246.268244,16284.530724,-73545.167808,296.082377
2246.270795,-6365.771101,-72472.634111,-296.082377
2246.273345,-4441.235652,-72932.291410,-444.123565
2246.275896,14804.118840,-73851.606007,7105.977043
2246.278447,15840.407159,-74158.044206,-2664.741391
2246.280998,-17320.819043,-75230.577904,5921.647536
2246.283548,2516.700203,-74464.482406,-4737.318029
2246.286099,23538.548956,-73851.606007,1036.288319
2246.288650,-37898.544230,-76149.892501,6365.771101
2246.291200,28423.908173,-72166.195912,-6069.688724
2246.293751,44116.274143,-72012.976812,1184.329507
2246.296220,-20873.807564,-74158.044206,888.247130
2246.298690,26795.455100,-72472.634111,-6957.935855
2246.301159,15248.242405,-75077.358804,7994.224174
2246.303628,-5181.441594,-72779.072310,-2812.782580
2246.306098,2220.617826,-74004.825107,740.205942
2246.308567,2960.823768,-73698.386908,3997.112087
2246.311036,15692.365970,-74770.920605,-2220.617826
2246.313505,-2368.659014,-74464.482406,4145.153275
2246.315975,9770.718434,-74004.825107,148.041188
2246.318444,-2516.700203,-74158.044206,2812.782580
2246.320913,9770.718434,-74004.825107,2368.659014
2246.323383,11251.130318,-74924.139704,-148.041188
2246.325852,-0.000000,-74617.701505,2072.576638
2246.328321,7105.977043,-73851.606007,-2664.741391
2246.330790,-24130.713709,-74617.701505,3552.988522
2246.333260,-1628.453072,-74770.920605,1628.453072
2246.335729,-6957.935855,-72319.415011,3997.112087
2246.338198,-1776.494261,-75383.797003,444.123565
2246.340668,1924.535449,-75996.673402,2960.823768
2246.343137,-9326.594869,-75537.016103,3997.112087
2246.345606,-5921.647536,-74158.044206,-3108.864956
2246.348075,-12287.418637,-72932.291410,11843.295072
2246.350545,-10214.842000,-74311.263306,-1480.411884
2246.353014,1036.288319,-72932.291410,3552.988522
2246.355483,-21021.848753,-77069.207099,4589.276840
2246.357953,-16728.654289,-75383.797003,1332.370696
2246.360422,-3701.029710,-75077.358804,1480.411884
2246.362891,-7105.977043,-73698.386908,1480.411884
2246.365361,11991.336260,-73391.948708,2812.782580
2246.367830,-0.000000,-74770.920605,1924.535449
2246.370299,-20725.766376,-74158.044206,4589.276840
2246.372768,27239.578666,-74311.263306,-2664.741391
2246.375238,-42783.903448,-73391.948708,1776.494261
2246.377707,-13471.748144,-75077.358804,1776.494261
2246.380176,26795.455100,-71246.881314,-4589.276840
2246.382646,-38786.791361,-75690.235202,17616.901420
2246.385115,14508.036463,-74311.263306,-888.247130
2246.387584,-22650.301825,-74311.263306,4441.235652
2246.390053,-19393.395680,-74464.482406,6809.894666
2246.392523,-3256.906145,-71246.881314,-5773.606348
2246.395013,-19393.395680,-73391.948708,10066.800811
2246.397506,-5329.482782,-74617.701505,148.041188
2246.399998,296.082377,-73238.729609,8290.306550
2246.402490,-4441.235652,-75537.016103,3849.070898
2246.404983,-2220.617826,-75077.358804,-0.000000
2246.407475,-6661.853478,-74311.263306,5773.606348
2246.409968,-8142.265362,-74158.044206,-3108.864956
2246.412460,-11399.171507,-73085.510509,5477.523971
2246.414952,11103.089130,-74770.920605,1776.494261
2246.417445,17468.860231,-73698.386908,-444.123565
2246.419937,12583.501014,-75843.454302,4293.194464
2246.422430,1924.535449,-75996.673402,-1036.288319
2246.424922,-1480.411884,-73851.606007,3849.070898
2246.427414,-444.123565,-73851.606007,1480.411884
2246.429907,592.164754,-72625.853210,5033.400406
2246.432399,14952.160028,-74004.825107,-0.000000
2246.434892,5773.606348,-74004.825107,740.205942
2246.437384,18505.148550,-75077.358804,-1184.329507
2246.439876,21762.054695,-74158.044206,1776.494261
2246.442369,10807.006753,-73085.510509,5033.400406
2246.444861,26795.455100,-73851.606007,-1332.370696
2246.447353,19245.354492,-74004.825107,3552.988522
2246.449846,23094.425390,-76149.892501,-740.205942
2246.452338,-38342.667796,-76149.892501,5329.482782
2246.454831,79498.118171,-70940.443115,-8290.306550
2246.457323,-57736.063476,-74004.825107,6217.729913
2246.459815,29608.237680,-75383.797003,-1924.535449
2246.462308,28275.866984,-75230.577904,6217.729913
2246.464800,-29904.320057,-75843.454302,3701.029710
2246.467293,57439.981099,-72166.195912,-7105.977043
2246.469785,-0.000000,-75843.454302,9770.718434
2246.472277,25907.207970,-71400.100414,-11251.130318
2246.474770,29608.237680,-73698.386908,11991.336260
2246.477262,-13175.665768,-74924.139704,4737.318029
2246.479754,23242.466579,-72625.853210,-8438.347739
2246.482247,-7698.141797,-74924.139704,7698.141797
2246.484739,8438.347739,-73085.510509,-4293.194464
2246.487232,1628.453072,-74770.920605,2516.700203
2246.489724,13027.624579,-72779.072310,2220.617826
2246.492216,2664.741391,-74617.701505,-3404.947333
2246.494728,9178.553681,-73851.606007,-1480.411884
2246.497240,-18801.230927,-75690.235202,7105.977043
2246.499751,-14952.160028,-75537.016103,-0.000000
2246.502263,-1480.411884,-73085.510509,10066.800811
2246.504774,-5329.482782,-73545.167808,-888.247130
2246.507286,3552.988522,-73698.386908,1776.494261
2246.509797,-3404.947333,-75996.673402,740.205942
2246.512309,-8438.347739,-74158.044206,740.205942
2246.514821,-18653.189738,-73545.167808,7105.977043
2246.517332,-3701.029710,-72166.195912,1776.494261
2246.519844,-16580.613101,-74617.701505,4293.194464
2246.522355,9474.636058,-74924.139704,1184.329507
2246.524867,12583.501014,-74464.482406,4441.235652
2246.527378,7846.182985,-75230.577904,1628.453072
2246.529890,-20725.766376,-73851.606007,3997.112087
2246.532402,-31532.773129,-72472.634111,7550.100608
2246.534913,31976.896694,-71706.538613,-8586.388927
2246.537425,6957.935855,-75537.016103,8142.265362
2246.539936,-67654.823099,-75077.358804,9326.594869
2246.542448,68395.029041,-73238.729609,-10214.842000
2246.544959,-12287.418637,-75230.577904,6661.853478
2246.547471,-40267.203245,-73851.606007,10066.800811
2246.549983,30644.525999,-73545.167808,-9622.677246
2246.552494,-12287.418637,-74617.701505,8290.306550
2246.555006,-3997.112087,-73085.510509,-3552.988522
2246.557517,-6661.853478,-73238.729609,888.247130
2246.560029,-18357.107362,-74158.044206,8586.388927
2246.562540,6069.688724,-74158.044206,-6069.688724
2246.565052,-15544.324782,-72932.291410,12879.583391
2246.567563,3404.947333,-74004.825107,-7994.224174
2246.570075,-6365.771101,-73851.606007,296.082377
2246.572587,-4145.153275,-75077.358804,8438.347739
2246.575098,-2664.741391,-73851.606007,-6957.935855
2246.577610,-6957.935855,-73698.386908,9918.759623
2246.580121,2368.659014,-74004.825107,-1776.494261
2246.582633,5329.482782,-73391.948708,1776.494261
2246.585144,19541.436869,-75230.577904,-1628.453072
2246.587656,4885.359217,-74004.825107,-592.164754
2246.590168,5921.647536,-74311.263306,-740.205942
2246.592679,-5329.482782,-73698.386908,1776.494261
2246.595136,-2664.741391,-73851.606007,6513.812290
2246.597593,9474.636058,-73391.948708,-2812.782580
2246.600050,10214.842000,-74004.825107,2072.576638
2246.602507,3849.070898,-75077.358804,-3552.988522
2246.604964,11251.130318,-76149.892501,2960.823768
2246.607421,-7402.059420,-72319.415011,888.247130
2246.609878,-20577.725188,-74617.701505,1776.494261
2246.612335,-2812.782580,-73085.510509,4441.235652
2246.614792,-13619.789333,-72779.072310,-3849.070898
2246.617249,44856.480085,-74464.482406,-4145.153275
2246.619706,-21465.972318,-75230.577904,7402.059420
2246.622163,8734.430116,-74004.825107,-1184.329507
2246.624620,-5477.523971,-74770.920605,4589.276840
2246.627077,8882.471304,-73545.167808,5181.441594
2246.629534,22798.343014,-74158.044206,-7402.059420
2246.631991,-15100.201217,-76456.330700,7105.977043
2246.634448,7550.100608,-77222.426198,-4737.318029
2246.636905,4737.318029,-75230.577904,9178.553681
2246.639362,15396.283594,-72472.634111,-296.082377
2246.641819,6809.894666,-74464.482406,-444.123565
2246.644276,-8142.265362,-74158.044206,6513.812290
2246.646733,7105.977043,-74311.263306,-5329.482782
2246.649190,1184.329507,-74311.263306,3404.947333
2246.651647,8290.306550,-74770.920605,-296.082377
2246.654104,6957.935855,-73545.167808,740.205942
2246.656561,8734.430116,-74004.825107,2368.659014
2246.659018,888.247130,-73851.606007,592.164754
2246.661474,-20281.642811,-74770.920605,4885.359217
2246.663931,-4145.153275,-75383.797003,-148.041188
2246.666388,-10066.800811,-73698.386908,7105.977043
2246.668845,3849.070898,-74311.263306,-1776.494261
2246.671302,-1776.494261,-74617.701505,2220.617826
2246.673759,2960.823768,-74924.139704,2664.741391
2246.676216,-15396.283594,-74004.825107,-148.041188
2246.678673,-13027.624579,-73698.386908,9326.594869
2246.681130,-9622.677246,-75077.358804,-740.205942
2246.683587,10955.047942,-73391.948708,1924.535449
2246.686044,-4589.276840,-73238.729609,-1776.494261
2246.688501,-8438.347739,-72625.853210,1776.494261
2246.690958,-8882.471304,-74770.920605,2960.823768
2246.693444,-1184.329507,-71859.757712,-0.000000
2246.695930,-2960.823768,-75077.358804,9326.594869
2246.698416,-13619.789333,-74770.920605,2072.576638
2246.700902,30644.525999,-73391.948708,-3256.906145
2246.703388,-41895.656317,-75077.358804,5625.565159
2246.705874,-2960.823768,-73391.948708,-2072.576638
2246.708359,17172.777854,-73238.729609,-444.123565
2246.710845,-34493.596897,-74464.482406,9178.553681
2246.713331,35974.008781,-73238.729609,-3701.029710
2246.715817,14804.118840,-74770.920605,3849.070898
2246.718303,-4737.318029,-73698.386908,4589.276840
2246.720789,1036.288319,-72625.853210,-4737.318029
2246.723275,-10362.883188,-74770.920605,11103.089130
2246.725761,-1924.535449,-74617.701505,-1776.494261
2246.728247,-5921.647536,-73851.606007,6513.812290
2246.730732,3108.864956,-74924.139704,-2220.617826
2246.733218,-5033.400406,-75077.358804,2960.823768
2246.735704,-6217.729913,-74311.263306,1628.453072
2246.738190,-6069.688724,-72779.072310,1332.370696
2246.740676,-2516.700203,-74617.701505,3849.070898
2246.743162,22798.343014,-74464.482406,-3256.906145
2246.745648,9918.759623,-74311.263306,3849.070898
2246.748134,11399.171507,-74770.920605,-3997.112087
2246.750620,-6217.729913,-75383.797003,3108.864956
2246.753105,-1036.288319,-74004.825107,2368.659014
2246.755591,148.041188,-72319.415011,1036.288319
2246.758077,11695.253884,-74770.920605,5033.400406
2246.760563,7550.100608,-74158.044206,-3552.988522
2246.763049,20577.725188,-75537.016103,1480.411884
2246.765535,25018.960840,-72625.853210,-5329.482782
2246.768021,-5921.647536,-72779.072310,7846.182985
2246.770507,23686.590144,-74004.825107,-3256.906145
2246.772993,26943.496289,-72319.415011,1036.288319
2246.775478,-42339.779882,-75690.235202,6365.771101
2246.777964,64693.999331,-72932.291410,-12879.583391
2246.780450,-30940.608376,-74311.263306,3108.864956
2246.782936,40711.326810,-73851.606007,-3701.029710
2246.785422,-25611.125593,-74311.263306,10362.883188
2246.787908,20133.601622,-73851.606007,740.205942
2246.790394,34641.638086,-73851.606007,-4441.235652
2246.792903,16284.530724,-74311.263306,4737.318029
2246.795412,21465.972318,-74158.044206,-8734.430116
2246.797920,-8142.265362,-75077.358804,3552.988522
2246.800429,11843.295072,-73545.167808,-740.205942
2246.802938,-3997.112087,-74004.825107,5921.647536
2246.805447,3108.864956,-74158.044206,888.247130
2246.807956,12731.542202,-74770.920605,-888.247130
2246.810465,7846.182985,-74924.139704,2812.782580
2246.812974,6217.729913,-74311.263306,-3997.112087
2246.815483,2664.741391,-74158.044206,3849.070898
2246.817991,-4293.194464,-74004.825107,-148.041188
2246.820500,-23094.425390,-74311.263306,5033.400406
2246.823009,-2516.700203,-73698.386908,3404.947333
2246.825518,2960.823768,-73238.729609,3997.112087
2246.828027,-148.041188,-75383.797003,2220.617826
2246.830536,1776.494261,-74311.263306,-3849.070898
2246.833045,-6661.853478,-73391.948708,6513.812290
2246.835553,-5625.565159,-73545.167808,1924.535449
2246.838062,-11399.171507,-73391.948708,8586.388927
2246.840571,-18061.024985,-75230.577904,-0.000000
2246.843080,10214.842000,-74770.920605,-1628.453072
2246.845589,-10066.800811,-74464.482406,-444.123565
2246.848098,-33309.267390,-74464.482406,2220.617826
2246.850607,-8142.265362,-73238.729609,5329.482782
2246.853116,14508.036463,-74004.825107,-3256.906145
2246.855624,-5625.565159,-73851.606007,5773.606348
2246.858133,-14952.160028,-74464.482406,3701.029710
2246.860642,7550.100608,-73238.729609,-3256.906145
2246.863151,-46484.933158,-75077.358804,11251.130318
2246.865660,21910.095883,-73391.948708,-2664.741391
2246.868169,-17616.901420,-72625.853210,1776.494261
2246.870678,-3256.906145,-73545.167808,4441.235652
2246.873187,-3108.864956,-73085.510509,-4589.276840
2246.875695,-30052.361245,-74311.263306,7254.018232
2246.878204,-2960.823768,-73391.948708,-3849.070898
2246.880713,-16728.654289,-73545.167808,9474.636058
2246.883222,-2664.741391,-74158.044206,3108.864956
2246.885731,-5181.441594,-74004.825107,-1036.288319
2246.888240,2516.700203,-74617.701505,2516.700203
2246.890749,-3256.906145,-74158.044206,3552.988522
2246.893276,-6513.812290,-73851.606007,-148.041188
2246.895803,-9326.594869,-73698.386908,1628.453072
2246.898330,1924.535449,-74158.044206,1776.494261
2246.900857,18357.107362,-74770.920605,-3108.864956
2246.903384,12879.583391,-73391.948708,4589.276840
2246.905911,5329.482782,-75077.358804,-1480.411884
2246.908438,1036.288319,-74617.701505,1332.370696
2246.910964,2664.741391,-73391.948708,3701.029710
2246.913491,2664.741391,-72932.291410,-148.041188
2246.916018,12435.459826,-73545.167808,4293.194464
2246.918545,11991.336260,-76456.330700,-1036.288319
2246.921072,19837.519246,-75537.016103,444.123565
2246.923599,25167.002028,-73545.167808,2368.659014
2246.926126,17764.942608,-73698.386908,1776.494261
2246.928653,13175.665768,-73391.948708,148.041188
2246.931180,26203.290347,-74924.139704,3256.906145
2246.933707,-32865.143825,-75077.358804,4737.318029
2246.936234,29312.155303,-73851.606007,-5921.647536
2246.938761,33457.308578,-74004.825107,-148.041188
2246.941288,-39082.873738,-75996.673402,9474.636058
2246.943815,56107.610404,-70787.224015,-4441.235652
2246.946342,-10214.842000,-72625.853210,-3552.988522
2246.948869,23242.466579,-72472.634111,3849.070898
2246.951396,1924.535449,-74158.044206,-5773.606348
2246.953923,-18357.107362,-73851.606007,8438.347739
2246.956450,23834.631332,-73238.729609,-1332.370696
2246.958977,-1480.411884,-73851.606007,-2516.700203
2246.961504,4885.359217,-74617.701505,5625.565159
2246.964031,10955.047942,-74004.825107,-4441.235652
2246.966558,296.082377,-74924.139704,6661.853478
2246.969085,13175.665768,-75843.454302,-3997.112087
2246.971612,148.041188,-74311.263306,5773.606348
2246.974139,-5477.523971,-74617.701505,5773.606348
2246.976666,-21317.931130,-73698.386908,-2368.659014
2246.979193,-2812.782580,-73851.606007,8438.347739
2246.981720,-2368.659014,-72625.853210,-1184.329507
2246.984246,-3108.864956,-74464.482406,2072.576638
2246.986773,5329.482782,-75230.577904,-1776.494261
2246.989300,-6217.729913,-75077.358804,3849.070898
2246.991827,-10510.924376,-74464.482406,1628.453072
2246.994310,-16136.489536,-73238.729609,6069.688724
2246.996792,-5625.565159,-73085.510509,1332.370696
2246.999274,-12583.501014,-73698.386908,-2812.782580
2247.001756,-14804.118840,-75077.358804,2368.659014
2247.004238,-17912.983796,-74464.482406,-0.000000
2247.006720,-7402.059420,-73238.729609,1776.494261
2247.009203,27683.702231,-71246.881314,1036.288319
2247.011685,-52850.704259,-74464.482406,6069.688724
2247.014167,-41303.491564,-74004.825107,3108.864956
2247.016649,49297.715737,-73391.948708,-8882.471304
2247.019131,-12287.418637,-76915.987999,13027.624579
2247.021613,-31828.855506,-73238.729609,-1184.329507
2247.024096,38638.750172,-72932.291410,5033.400406
2247.026578,-12139.377449,-75077.358804,1924.535449
2247.029060,12879.583391,-74158.044206,740.205942
2247.031542,1036.288319,-73545.167808,3108.864956
2247.034024,-19689.478057,-73698.386908,3552.988522
2247.036507,7402.059420,-72932.291410,-296.082377
2247.038989,-13767.830521,-72779.072310,3108.864956
2247.041471,8290.306550,-73698.386908,-444.123565
2247.043953,-14211.954086,-74924.139704,8290.306550
2247.046435,8290.306550,-73851.606007,-4589.276840
2247.048917,-11843.295072,-73851.606007,5181.441594
2247.051400,8734.430116,-74311.263306,2516.700203
2247.053882,15988.448347,-73391.948708,-740.205942
2247.056364,14063.912898,-74464.482406,-1036.288319
2247.058846,5625.565159,-74770.920605,444.123565
2247.061328,-444.123565,-75690.235202,-296.082377
2247.063810,-148.041188,-73391.948708,1332.370696
2247.066293,-4441.235652,-72932.291410,5625.565159
2247.068775,11843.295072,-73545.167808,444.123565
2247.071257,10362.883188,-73238.729609,-0.000000
2247.073739,-9178.553681,-76915.987999,1332.370696
2247.076221,-2220.617826,-76609.549800,-1924.535449
2247.078704,1628.453072,-74158.044206,4441.235652
2247.081186,21762.054695,-73698.386908,2220.617826
2247.083668,-9030.512492,-74311.263306,9178.553681
2247.086150,-18653.189738,-75077.358804,4737.318029
2247.088632,26351.331535,-73851.606007,-9326.594869
2247.091114,-3108.864956,-74158.044206,-444.123565
2247.093622,10066.800811,-74158.044206,2072.576638
2247.096129,-20725.766376,-75843.454302,3552.988522
2247.098636,18061.024985,-73238.729609,148.041188
2247.101143,-26351.331535,-74004.825107,-296.082377
2247.103651,4293.194464,-74311.263306,-4441.235652
2247.106158,4589.276840,-74770.920605,1628.453072
2247.108665,-2220.617826,-74311.263306,296.082377
2247.111172,11547.212695,-73698.386908,148.041188
2247.113680,740.205942,-73698.386908,5773.606348
2247.116187,10955.047942,-74004.825107,-4885.359217
2247.118694,3256.906145,-75230.577904,5921.647536
2247.121201,5033.400406,-75383.797003,-4885.359217
2247.123709,8290.306550,-72319.415011,-1036.288319
2247.126216,-19393.395680,-74617.701505,7105.977043
2247.128723,-12731.542202,-75077.358804,-888.247130
2247.131230,-3552.988522,-72779.072310,9030.512492
2247.133738,-8438.347739,-74004.825107,-592.164754
2247.136245,6069.688724,-74158.044206,1776.494261
2247.138752,-3256.906145,-75230.577904,740.205942
2247.141259,-12583.501014,-72625.853210,592.164754
2247.143767,-13767.830521,-73545.167808,5921.647536
2247.146274,-7254.018232,-72319.415011,3552.988522
2247.148781,-27091.537477,-75230.577904,1480.411884
2247.151288,-6365.771101,-77375.645298,1332.370696
2247.153796,9918.759623,-74004.825107,740.205942
2247.156303,9918.759623,-73391.948708,2516.700203
2247.158810,-37750.503042,-74924.139704,6661.853478
2247.161317,-20429.683999,-73085.510509,148.041188
2247.163825,27683.702231,-72012.976812,-3849.070898
2247.166332,-54183.074954,-76303.111601,9770.718434
2247.168839,72244.099939,-74004.825107,-6513.812290
2247.171347,-71503.893997,-76915.987999,15988.448347
2247.173873,16728.654289,-73545.167808,5033.400406
2247.176400,-17024.736666,-74924.139704,6069.688724
2247.178926,-52850.704259,-75843.454302,2812.782580
2247.181453,18357.107362,-73698.386908,-7698.141797
2247.183980,-33457.308578,-76149.892501,7846.182985
2247.186506,10066.800811,-72012.976812,-5477.523971
2247.189033,-16284.530724,-75230.577904,7846.182985
2247.191560,-3552.988522,-72472.634111,-592.164754
2247.194086,-2664.741391,-74924.139704,5625.565159
2247.196613,-11843.295072,-75077.358804,1332.370696
2247.199140,1332.370696,-73391.948708,148.041188
2247.201666,6069.688724,-75230.577904,3997.112087
2247.204193,17912.983796,-73698.386908,-1036.288319
2247.206720,8734.430116,-74004.825107,-296.082377
2247.209246,6513.812290,-73698.386908,-1036.288319
2247.211773,-0.000000,-75690.235202,-0.000000
2247.214300,-4145.153275,-74311.263306,1776.494261
2247.216826,5329.482782,-72625.853210,2812.782580
2247.219353,6957.935855,-74158.044206,1184.329507
2247.221880,23982.672521,-72932.291410,-1776.494261
2247.224406,-8882.471304,-75077.358804,-740.205942
2247.226933,888.247130,-73391.948708,-1480.411884
2247.229460,-17912.983796,-74311.263306,3849.070898
2247.231986,10214.842000,-72166.195912,-3256.906145
2247.234513,52702.663070,-72472.634111,-2368.659014
2247.237040,-18801.230927,-76609.549800,7550.100608
2247.239566,25907.207970,-74311.263306,740.205942
2247.242093,-34197.514520,-76456.330700,4737.318029
2247.244620,24426.796086,-73085.510509,-2368.659014
2247.247146,1184.329507,-75690.235202,2664.741391
2247.249673,-12139.377449,-74617.701505,8586.388927
2247.252200,39082.873738,-75383.797003,-3404.947333
2247.254726,-13915.871710,-73851.606007,1184.329507
2247.257253,5625.565159,-73391.948708,-0.000000
2247.259779,-148.041188,-73851.606007,-3404.947333
2247.262306,-2072.576638,-73545.167808,8290.306550
2247.264833,15396.283594,-73545.167808,-2368.659014
2247.267359,2516.700203,-74464.482406,5329.482782
2247.269886,14508.036463,-74617.701505,-4737.318029
2247.272413,9918.759623,-74004.825107,-3552.988522
2247.274956,-23982.672521,-74924.139704,10807.006753
2247.277498,-13471.748144,-74617.701505,-2516.700203
2247.280041,-7254.018232,-73085.510509,10658.965565
2247.282584,592.164754,-72932.291410,1628.453072
2247.285127,-0.000000,-74617.701505,592.164754
2247.287670,1036.288319,-75690.235202,-1628.453072
2247.290213,-5921.647536,-74464.482406,2960.823768
2247.292756,-7846.182985,-73391.948708,4293.194464
2247.295298,-26943.496289,-72012.976812,7105.977043
2247.297841,-5773.606348,-75077.358804,1776.494261
2247.300384,9918.759623,-76456.330700,3849.070898
2247.302927,15396.283594,-74617.701505,1036.288319
2247.305470,13027.624579,-73085.510509,-2960.823768
2247.308013,-39378.956114,-77069.207099,16284.530724
2247.310556,-39378.956114,-74158.044206,888.247130
2247.313098,83495.230258,-72012.976812,-1776.494261
2247.315641,-96670.896025,-79214.274493,15544.324782
2247.318184,56847.816346,-73698.386908,-11399.171507
2247.320727,-18061.024985,-75690.235202,16580.613101
2247.323270,-38194.626607,-70021.128517,-13175.665768
2247.325813,20725.766376,-72779.072310,10955.047942
2247.328355,-21762.054695,-77988.521696,4293.194464
2247.330898,11695.253884,-73698.386908,-8586.388927
2247.333441,-5625.565159,-75537.016103,10066.800811
2247.335984,-15100.201217,-73698.386908,-3849.070898
2247.338527,6069.688724,-73851.606007,5625.565159
2247.341070,-16136.489536,-74924.139704,3108.864956
2247.343613,5773.606348,-73545.167808,1036.288319
2247.346155,-13027.624579,-75537.016103,4293.194464
2247.348698,4737.318029,-73698.386908,-2072.576638
2247.351241,11251.130318,-73391.948708,-740.205942
2247.353784,16728.654289,-74617.701505,-148.041188
2247.356327,4885.359217,-74924.139704,5773.606348
2247.358870,7105.977043,-74924.139704,-1184.329507
2247.361413,-6365.771101,-74158.044206,2220.617826
2247.363955,6365.771101,-74464.482406,3552.988522
2247.366498,17172.777854,-73698.386908,-1036.288319
2247.369041,-1628.453072,-75383.797003,3849.070898
2247.371584,34641.638086,-74924.139704,-1184.329507
2247.374127,19245.354492,-74004.825107,2812.782580
2247.376629,26943.496289,-74464.482406,1628.453072
2247.379133,25759.166782,-74004.825107,-1036.288319
2247.381636,-296.082377,-76303.111601,10510.924376
2247.384139,-4885.359217,-75230.577904,-1332.370696
2247.386642,33457.308578,-73085.510509,-4441.235652
2247.389146,-48261.427418,-75383.797003,1184.329507
2247.391649,27831.743419,-72472.634111,-7846.182985
2247.394152,-5625.565159,-75537.016103,4441.235652
2247.396655,-17468.860231,-73545.167808,7402.059420
2247.399158,23982.672521,-75690.235202,-2072.576638
2247.401662,-5033.400406,-74311.263306,8734.430116
2247.404165,4145.153275,-73698.386908,-296.082377
2247.406668,-1924.535449,-73851.606007,-3701.029710
2247.409171,-888.247130,-73545.167808,8142.265362
2247.411675,11991.336260,-74158.044206,-4293.194464
2247.414178,10362.883188,-73085.510509,9770.718434
2247.416681,6809.894666,-75383.797003,-6069.688724
2247.419184,7254.018232,-73391.948708,-1628.453072
2247.421688,-18061.024985,-75077.358804,12731.542202
2247.424191,-14804.118840,-75996.673402,-4885.359217
2247.426694,-1036.288319,-71859.757712,12435.459826
2247.429197,-6661.853478,-74464.482406,888.247130
2247.431700,5033.400406,-72779.072310,-2960.823768
2247.434204,1776.494261,-75537.016103,2220.617826
2247.436707,-12139.377449,-73698.386908,-296.082377
2247.439210,-3997.112087,-74311.263306,6365.771101
2247.441713,-27387.619854,-74311.263306,5921.647536
2247.444217,-5329.482782,-75383.797003,-148.041188
2247.446720,12435.459826,-77069.207099,5033.400406
2247.449223,-12139.377449,-74158.044206,-740.205942
2247.451726,-6661.853478,-74158.044206,-1036.288319
2247.454230,1184.329507,-73698.386908,8290.306550
2247.456733,-58328.228230,-74158.044206,2960.823768
2247.459236,5477.523971,-71400.100414,-9474.636058
2247.461739,42635.862259,-76609.549800,9030.512492
2247.464242,-78165.747475,-75690.235202,2072.576638
2247.466746,44116.274143,-72932.291410,-1628.453072
2247.469249,-61733.175563,-75230.577904,12435.459826
2247.471752,-12731.542202,-73085.510509,-5329.482782
2247.474255,11251.130318,-75843.454302,5773.606348
2247.476780,-27831.743419,-74464.482406,-3849.070898
2247.479305,7105.977043,-74311.263306,1036.288319
2247.481830,-15248.242405,-75230.577904,7994.224174
2247.484354,-5921.647536,-72932.291410,-3404.947333
2247.486879,-4293.194464,-74311.263306,6365.771101
2247.489404,-7846.182985,-74617.701505,-0.000000
2247.491929,-8438.347739,-74158.044206,1628.453072
2247.494453,14952.160028,-74311.263306,2664.741391
2247.496978,15692.365970,-74617.701505,-1776.494261
2247.499503,6809.894666,-73391.948708,3108.864956
2247.502028,8882.471304,-75077.358804,-1036.288319
2247.504552,-9918.759623,-73851.606007,2960.823768
2247.507077,11695.253884,-73545.167808,-740.205942
2247.509602,-4589.276840,-73238.729609,4737.318029
2247.512127,17320.819043,-73391.948708,-1480.411884
2247.514652,-2664.741391,-76149.892501,148.041188
2247.517176,8734.430116,-72166.195912,888.247130
2247.519701,-5921.647536,-73085.510509,-148.041188
2247.522226,8586.388927,-72932.291410,-5477.523971
2247.524751,16728.654289,-74617.701505,4441.235652
2247.527275,-32124.937883,-74311.263306,6957.935855
2247.529800,30792.567187,-73085.510509,-6513.812290
2247.532325,-43820.191766,-74464.482406,-0.000000
2247.534850,19541.436869,-73545.167808,-296.082377
2247.537374,31384.731941,-74770.920605,-1924.535449
2247.539899,8142.265362,-75077.358804,11251.130318
2247.542424,47225.139100,-72625.853210,-6661.853478
2247.544949,-2368.659014,-75690.235202,4293.194464
2247.547473,11251.130318,-74311.263306,-0.000000
2247.549998,-7402.059420,-74004.825107,-1776.494261
2247.552523,5329.482782,-73391.948708,5477.523971
2247.555048,21169.889941,-74311.263306,740.205942
2247.557572,2220.617826,-74158.044206,-296.082377
2247.560097,13767.830521,-74464.482406,1332.370696
2247.562622,-3701.029710,-74617.701505,-2664.741391
2247.565147,-20281.642811,-73545.167808,4589.276840
2247.567671,-7994.224174,-74924.139704,-592.164754
2247.570196,296.082377,-72319.415011,7254.018232
2247.572721,-7254.018232,-75230.577904,1776.494261
2247.575246,296.082377,-75383.797003,2220.617826
2247.577788,4885.359217,-74464.482406,-592.164754
2247.580330,-18653.189738,-73545.167808,3701.029710
2247.582873,-11399.171507,-72012.976812,4885.359217
2247.585415,-10362.883188,-74004.825107,6661.853478
2247.587957,-7698.141797,-76915.987999,2368.659014
2247.590500,-9622.677246,-76456.330700,3108.864956
2247.593042,148.041188,-74004.825107,-3256.906145
2247.595584,13767.830521,-72472.634111,4737.318029
2247.598127,-54183.074954,-75537.016103,4145.153275
2247.600669,94598.319388,-72779.072310,4885.359217
2247.603211,-110438.726546,-80133.589091,10510.924376
2247.605754,76833.376780,-72932.291410,-8438.347739
2247.608296,-23538.548956,-77222.426198,17320.819043
2247.610838,-39378.956114,-75996.673402,2516.700203
2247.613381,24574.837274,-70021.128517,-4145.153275
2247.615923,-31976.896694,-78141.740796,18801.230927
2247.618465,-7254.018232,-72625.853210,-6217.729913
2247.621008,-1036.288319,-75843.454302,8734.430116
2247.623550,-3552.988522,-72012.976812,-8734.430116
2247.626092,1480.411884,-75383.797003,3108.864956
2247.628635,-16580.613101,-75077.358804,8438.347739
2247.631177,-6661.853478,-73085.510509,-0.000000
2247.633719,-11843.295072,-75077.358804,2368.659014
2247.636262,19097.313304,-73391.948708,-1036.288319
2247.638804,16876.695478,-74464.482406,-1332.370696
2247.641346,13323.706956,-74617.701505,1924.535449
2247.643889,2368.659014,-75077.358804,2368.659014
2247.646431,-11103.089130,-73391.948708,888.247130
2247.648973,8586.388927,-72472.634111,1184.329507
2247.651516,-5625.565159,-72472.634111,3849.070898
2247.654058,27831.743419,-73238.729609,-2960.823768
2247.656600,-15692.365970,-74770.920605,-1036.288319
2247.659143,1184.329507,-74924.139704,-2368.659014
2247.661685,-24870.919651,-75383.797003,2516.700203
2247.664227,-14508.036463,-73698.386908,3849.070898
2247.666770,26795.455100,-74004.825107,-3701.029710
2247.669312,2960.823768,-73851.606007,-1332.370696
2247.671854,7402.059420,-75690.235202,7994.224174
2247.674397,7698.141797,-75690.235202,2220.617826
2247.676939,6069.688724,-72472.634111,2368.659014
2247.679494,29904.320057,-72319.415011,-5773.606348
2247.682049,-3701.029710,-72472.634111,4293.194464
2247.684603,27535.661042,-74311.263306,2072.576638
2247.687158,2812.782580,-74464.482406,1628.453072
2247.689713,11103.089130,-74311.263306,-1184.329507
2247.692268,7846.182985,-74770.920605,5773.606348
2247.694823,1184.329507,-73851.606007,-1036.288319
2247.697377,26943.496289,-72779.072310,3404.947333
2247.699932,-6957.935855,-74924.139704,-3404.947333
2247.702487,13915.871710,-73238.729609,-1036.288319
2247.705042,-20133.601622,-76303.111601,9030.512492
2247.707597,-18949.272115,-74617.701505,-2072.576638
2247.710151,2072.576638,-72166.195912,10955.047942
2247.712706,-6809.894666,-73391.948708,592.164754
2247.715261,8142.265362,-73238.729609,-592.164754
2247.717816,-7105.977043,-75537.016103,1036.288319
2247.720371,-888.247130,-73851.606007,-2664.741391
2247.722925,-6069.688724,-73545.167808,6069.688724
2247.725480,-29016.072926,-74158.044206,5033.400406
2247.728035,-6809.894666,-75537.016103,3849.070898
2247.730590,12583.501014,-76303.111601,1480.411884
2247.733145,5921.647536,-75843.454302,592.164754
2247.735699,18801.230927,-75996.673402,5477.523971
2247.738254,-46336.891969,-75077.358804,4441.235652
2247.740809,-888.247130,-72625.853210,296.082377
2247.743364,-28127.825796,-74004.825107,2072.576638
2247.745919,4589.276840,-72779.072310,-3404.947333
2247.748473,-27683.702231,-75383.797003,6957.935855
2247.751028,-5181.441594,-72932.291410,-1776.494261
2247.753583,-34493.596897,-76303.111601,6513.812290
2247.756138,-16728.654289,-74158.044206,2516.700203
2247.758693,-2220.617826,-72319.415011,1184.329507
2247.761247,-12879.583391,-75077.358804,6661.853478
2247.763802,6661.853478,-73698.386908,-1628.453072
2247.766357,-7698.141797,-75077.358804,1924.535449
2247.768912,-3849.070898,-73851.606007,4737.318029
2247.771467,-16284.530724,-74770.920605,3701.029710
2247.774021,-3108.864956,-73545.167808,1776.494261
2247.776576,11399.171507,-74617.701505,1776.494261
2247.779131,27239.578666,-75383.797003,-5033.400406
2247.781696,5773.606348,-74311.263306,6513.812290
2247.784260,3404.947333,-75230.577904,-2812.782580
2247.786825,-6513.812290,-72932.291410,3256.906145
2247.789390,1628.453072,-74464.482406,2664.741391
2247.791955,3849.070898,-72625.853210,2368.659014
2247.794519,23686.590144,-75383.797003,148.041188
2247.797084,31532.773129,-74311.263306,-5773.606348
2247.799649,7550.100608,-74311.263306,1480.411884
2247.802213,19245.354492,-73545.167808,1036.288319
2247.804778,17024.736666,-73238.729609,3404.947333
2247.807343,-17172.777854,-74004.825107,4885.359217
2247.809908,29608.237680,-72166.195912,-6513.812290
2247.812472,18653.189738,-74158.044206,-592.164754
2247.815037,-7550.100608,-75077.358804,3256.906145
2247.817602,18061.024985,-73238.729609,444.123565
2247.820166,25907.207970,-72779.072310,740.205942
2247.822731,-14063.912898,-73545.167808,740.205942
2247.825296,9030.512492,-71706.538613,-6513.812290
2247.827861,-5477.523971,-72779.072310,740.205942
2247.830425,7105.977043,-74770.920605,1628.453072
2247.832990,6069.688724,-74004.825107,148.041188
2247.835555,7105.977043,-73698.386908,3552.988522
2247.838119,11103.089130,-74770.920605,-3849.070898
2247.840684,740.205942,-74311.263306,2664.741391
2247.843249,296.082377,-74617.701505,3404.947333
2247.845814,-22798.343014,-75383.797003,444.123565
2247.848378,-5181.441594,-75537.016103,4145.153275
2247.850943,-2220.617826,-72319.415011,5625.565159
2247.853508,-8734.430116,-74311.263306,-888.247130
2247.856072,-888.247130,-75996.673402,2812.782580
2247.858637,1628.453072,-74617.701505,592.164754
2247.861202,-18209.066173,-74464.482406,4145.153275
2247.863767,-10510.924376,-72012.976812,4293.194464
2247.866331,-30200.402434,-74004.825107,2812.782580
2247.868896,-6809.894666,-74770.920605,-2812.782580
2247.871461,-6217.729913,-76609.549800,6661.853478
2247.874025,28868.031738,-75537.016103,592.164754
2247.876590,-29164.114115,-76149.892501,11843.295072
2247.879155,-26499.372724,-74004.825107,1480.411884
2247.881720,63657.711012,-70787.224015,-3701.029710
2247.884292,-60548.846056,-77528.864398,11251.130318
2247.886865,29756.278868,-73851.606007,-5921.647536
2247.889438,13619.789333,-76915.987999,14063.912898
2247.892011,-30496.484810,-70634.004916,-11251.130318
2247.894583,11991.336260,-73085.510509,740.205942
2247.897156,-14211.954086,-75077.358804,9622.677246
2247.899729,3701.029710,-71859.757712,-5181.441594
2247.902302,4589.276840,-76303.111601,6365.771101
2247.904874,-8290.306550,-73851.606007,-5033.400406
2247.907447,-2220.617826,-73698.386908,5033.400406
2247.910020,-18801.230927,-75690.235202,4293.194464
2247.912593,6809.894666,-72932.291410,-3552.988522
2247.915165,12731.542202,-74770.920605,2664.741391
2247.917738,24130.713709,-74617.701505,-3256.906145
2247.920311,5625.565159,-74617.701505,3108.864956
2247.922884,4737.318029,-75690.235202,148.041188
2247.925456,-4737.318029,-72319.415011,888.247130
2247.928029,4885.359217,-74158.044206,3256.906145
2247.930602,13915.871710,-73238.729609,-0.000000
2247.933175,6069.688724,-73238.729609,-296.082377
2247.935747,4441.235652,-74770.920605,-7254.018232
2247.938320,-17616.901420,-75690.235202,3701.029710
2247.940893,-7254.018232,-73238.729609,592.164754
2247.943466,10807.006753,-71400.100414,-3108.864956
2247.946038,13915.871710,-73698.386908,3404.947333
2247.948611,-20725.766376,-73698.386908,2516.700203
2247.951184,15396.283594,-75996.673402,2220.617826
2247.953756,42191.738694,-74004.825107,-1036.288319
2247.956329,-17912.983796,-74924.139704,5625.565159
2247.958902,48557.509795,-74158.044206,-2812.782580
2247.961475,-3108.864956,-75383.797003,5773.606348
2247.964047,17024.736666,-73085.510509,1036.288319
2247.966620,1036.288319,-74158.044206,1036.288319
2247.969193,4885.359217,-73851.606007,296.082377
2247.971766,13175.665768,-75537.016103,-888.247130
2247.974338,7846.182985,-74004.825107,1184.329507
2247.976911,7550.100608,-74311.263306,2072.576638
2247.979484,-2812.782580,-73698.386908,-0.000000
2247.982057,-8290.306550,-74004.825107,5625.565159
2247.984629,-21169.889941,-75690.235202,-592.164754
2247.987207,444.123565,-73698.386908,5329.482782
2247.989785,-7994.224174,-74158.044206,2960.823768
2247.992363,4145.153275,-73391.948708,148.041188
2247.994941,-740.205942,-75996.673402,2960.823768
2247.997519,-17024.736666,-73851.606007,4293.194464
2248.000097,4293.194464,-73545.167808,2812.782580
2248.002675,-25018.960840,-73545.167808,2368.659014
2248.005253,592.164754,-73545.167808,-740.205942
2248.007831,5477.523971,-74464.482406,-0.000000
2248.010409,17468.860231,-74158.044206,1332.370696
2248.012987,5477.523971,-74924.139704,6069.688724
2248.015565,-34641.638086,-74311.263306,2072.576638
2248.018143,8734.430116,-73085.510509,3108.864956
2248.020720,-41451.532752,-73391.948708,1480.411884
2248.023298,8438.347739,-72932.291410,-3256.906145
2248.025876,-42339.779882,-75690.235202,9918.759623
2248.028454,-23538.548956,-73391.948708,-5773.606348
2248.031032,-13027.624579,-74464.482406,1036.288319
2248.033610,-16876.695478,-74158.044206,5181.441594
2248.036188,3701.029710,-74158.044206,-2072.576638
2248.038766,-16136.489536,-74311.263306,9918.759623
2248.041344,1628.453072,-74770.920605,-592.164754
2248.043922,-18061.024985,-74617.701505,4885.359217
2248.046500,-12879.583391,-73545.167808,6661.853478
2248.049078,8142.265362,-73698.386908,-1924.535449
2248.051656,12879.583391,-74311.263306,3701.029710
2248.054234,21465.972318,-74770.920605,-2368.659014
2248.056811,3404.947333,-74158.044206,2368.659014
2248.059389,6069.688724,-74770.920605,-1480.411884
2248.061967,-9178.553681,-73085.510509,2664.741391
2248.064545,8734.430116,-73391.948708,1480.411884
2248.067123,18505.148550,-74311.263306,-444.123565
2248.069701,12435.459826,-73851.606007,-444.123565
2248.072279,20725.766376,-73085.510509,-8142.265362
2248.074857,-6069.688724,-74158.044206,6217.729913
2248.077435,19245.354492,-73085.510509,-6217.729913
2248.080013,-41599.573940,-76609.549800,10214.842000
2248.082591,3108.864956,-73545.167808,-148.041188
2248.085169,-2072.576638,-73085.510509,-6365.771101
2248.087747,888.247130,-73085.510509,-2960.823768
2248.090329,8586.388927,-74311.263306,-5477.523971
2248.092911,-17320.819043,-72625.853210,888.247130
2248.095493,1924.535449,-75077.358804,3849.070898
2248.098075,-14508.036463,-73085.510509,6069.688724
2248.100657,24870.919651,-72779.072310,-3404.947333
2248.103239,11103.089130,-74770.920605,3108.864956
2248.105821,-7402.059420,-76609.549800,592.164754
2248.108403,23538.548956,-74311.263306,-888.247130
2248.110985,-8586.388927,-76609.549800,3108.864956
2248.113567,19985.560434,-72625.853210,-888.247130
2248.116149,-12731.542202,-74464.482406,8438.347739
2248.118731,-20281.642811,-75230.577904,-1924.535449
2248.121313,-4441.235652,-74924.139704,5181.441594
2248.123895,-10658.965565,-74004.825107,-444.123565
2248.126477,6365.771101,-72779.072310,-1480.411884
2248.129059,-7402.059420,-75690.235202,2220.617826
2248.131641,888.247130,-73698.386908,-2368.659014
2248.134223,-17912.983796,-75537.016103,6957.935855
2248.136805,296.082377,-72625.853210,1628.453072
2248.139387,-2960.823768,-73085.510509,3404.947333
2248.141970,-14804.118840,-74004.825107,-0.000000
2248.144552,-444.123565,-73698.386908,2516.700203
2248.147134,11103.089130,-73545.167808,1924.535449
2248.149716,-26055.249158,-74770.920605,5033.400406
2248.152298,-5773.606348,-74004.825107,3849.070898
2248.154880,296.082377,-73698.386908,888.247130
2248.157462,-23686.590144,-74617.701505,5181.441594
2248.160044,-32569.061448,-75383.797003,-740.205942
2248.162626,16284.530724,-75383.797003,7402.059420
2248.165208,-18949.272115,-75383.797003,3552.988522
2248.167790,10955.047942,-73698.386908,2812.782580
2248.170372,-12879.583391,-75383.797003,3701.029710
2248.172954,-3701.029710,-72472.634111,-0.000000
2248.175536,-4885.359217,-74617.701505,5329.482782
2248.178118,-12435.459826,-74617.701505,-148.041188
2248.180700,-3997.112087,-73698.386908,3997.112087
2248.183282,444.123565,-75077.358804,3108.864956
2248.185864,22502.260637,-73238.729609,-740.205942
2248.188446,13323.706956,-74770.920605,-592.164754
2248.191028,7698.141797,-73391.948708,1480.411884
2248.193613,2812.782580,-74617.701505,-444.123565
2248.196198,-3404.947333,-73698.386908,2664.741391
2248.198783,7105.977043,-72166.195912,2664.741391
2248.201368,20133.601622,-74311.263306,1332.370696
2248.203953,22206.178260,-73391.948708,-2516.700203
2248.206538,17616.901420,-74770.920605,-2072.576638
2248.209123,-4885.359217,-74004.825107,1480.411884
2248.211708,-26499.372724,-71859.757712,-592.164754
2248.214293,14656.077652,-74004.825107,-444.123565
2248.216878,39230.914926,-74464.482406,444.123565
2248.219464,-58328.228230,-75690.235202,2516.700203
2248.222049,57291.939911,-73238.729609,-7698.141797
2248.224634,-14063.912898,-77222.426198,5033.400406
2248.227219,20133.601622,-74924.139704,2220.617826
2248.229804,42635.862259,-73851.606007,1332.370696
2248.232389,-4589.276840,-73391.948708,10362.883188
2248.234974,23094.425390,-73391.948708,-2072.576638
2248.237559,296.082377,-74617.701505,-444.123565
2248.240144,11399.171507,-75077.358804,3701.029710
2248.242729,9474.636058,-75996.673402,-2368.659014
2248.245314,592.164754,-74158.044206,6365.771101
2248.247899,12287.418637,-73545.167808,-3997.112087
2248.250484,-33457.308578,-73851.606007,6069.688724
2248.253069,-3849.070898,-76149.892501,1776.494261
2248.255654,-7846.182985,-73085.510509,-1628.453072
2248.258239,-9178.553681,-73851.606007,1036.288319
2248.260824,4441.235652,-75996.673402,2368.659014
2248.263409,-13323.706956,-74924.139704,4885.359217
2248.265994,-9770.718434,-72932.291410,2220.617826
2248.268579,-2516.700203,-72472.634111,6513.812290
2248.271164,9770.718434,-74311.263306,2960.823768
2248.273749,3997.112087,-75077.358804,3849.070898
2248.276293,-21465.972318,-75843.454302,3701.029710
2248.278838,40415.244433,-72625.853210,-8438.347739
2248.281383,-69579.358548,-75843.454302,14952.160028
2248.283927,35974.008781,-72779.072310,-6809.894666
2248.286472,-39082.873738,-74770.920605,8438.347739
2248.289017,-38934.832549,-74158.044206,-6217.729913
2248.291561,21021.848753,-72625.853210,-3701.029710
2248.294106,-27831.743419,-74617.701505,12139.377449
2248.296651,2664.741391,-74004.825107,-6661.853478
2248.299195,-9622.677246,-75690.235202,13619.789333
2248.301740,-15840.407159,-73545.167808,-1628.453072
2248.304285,5033.400406,-75690.235202,2664.741391
2248.306829,-16432.571912,-75077.358804,6069.688724
2248.309374,2812.782580,-72625.853210,-5477.523971
2248.311919,-20281.642811,-73545.167808,10362.883188
2248.314463,7105.977043,-73545.167808,-592.164754
2248.317008,19689.478057,-74770.920605,-148.041188
2248.319553,15692.365970,-76149.892501,-148.041188
2248.322097,10362.883188,-74617.701505,296.082377
2248.324642,-740.205942,-74617.701505,2664.741391
2248.327187,-4145.153275,-73545.167808,2664.741391
2248.329731,3849.070898,-73085.510509,4737.318029
2248.332276,8734.430116,-75230.577904,1924.535449
2248.334821,16432.571912,-75230.577904,-740.205942
2248.337365,31384.731941,-75230.577904,296.082377
2248.339910,-16728.654289,-75230.577904,1480.411884
2248.342454,37454.420665,-73698.386908,2072.576638
2248.344999,-28127.825796,-75537.016103,6957.935855
2248.347544,8142.265362,-73851.606007,148.041188
2248.350088,31680.814318,-72779.072310,-1628.453072
2248.352633,21021.848753,-74158.044206,-2072.576638
2248.355178,5033.400406,-74158.044206,2220.617826
2248.357722,34049.473332,-72932.291410,-2664.741391
2248.360267,-9178.553681,-73238.729609,3701.029710
2248.362812,14508.036463,-75843.454302,-444.123565
2248.365356,-4737.318029,-74617.701505,7698.141797
2248.367901,10955.047942,-74004.825107,-4145.153275
2248.370446,22058.137072,-74464.482406,-444.123565
2248.372990,-5181.441594,-75996.673402,2220.617826
2248.375535,21317.931130,-72779.072310,-3404.947333
2248.378090,-17912.983796,-74617.701505,7994.224174
2248.380645,-18801.230927,-74924.139704,1776.494261
2248.383200,-5921.647536,-74158.044206,3997.112087
2248.385756,-6809.894666,-74004.825107,2664.741391
2248.388311,8734.430116,-74464.482406,-1184.329507
2248.390866,-9474.636058,-75537.016103,1776.494261
2248.393421,-3404.947333,-74617.701505,-1628.453072
2248.395976,-28868.031738,-73851.606007,7698.141797
2248.398531,-25907.207970,-73851.606007,5033.400406
2248.401086,-6957.935855,-74311.263306,2220.617826
2248.403641,-3552.988522,-74617.701505,592.164754
2248.406196,44264.315332,-76303.111601,740.205942
2248.408751,7550.100608,-74617.701505,4885.359217
2248.411306,-68098.946664,-74158.044206,5625.565159
2248.413862,55663.486838,-73085.510509,-888.247130
2248.416417,-49741.839302,-77222.426198,15840.407159
2248.418972,-23094.425390,-73698.386908,-7105.977043
2248.421527,8142.265362,-74311.263306,3849.070898
2248.424082,-49741.839302,-74004.825107,1776.494261
2248.426637,6069.688724,-74004.825107,-2960.823768
2248.429192,-17468.860231,-76456.330700,10955.047942
2248.431747,-10807.006753,-73238.729609,-1628.453072
2248.434302,3256.906145,-74617.701505,2368.659014
2248.436857,-17616.901420,-74004.825107,592.164754
2248.439412,2516.700203,-73698.386908,3108.864956
2248.441967,-18505.148550,-74004.825107,2516.700203
2248.444523,15692.365970,-72932.291410,-1628.453072
2248.447078,23834.631332,-74924.139704,-148.041188
2248.449633,8734.430116,-74158.044206,-2072.576638
2248.452188,2664.741391,-75230.577904,2960.823768
2248.454743,-7846.182985,-74464.482406,2072.576638
2248.457298,6365.771101,-73391.948708,2516.700203
2248.459853,-4145.153275,-74004.825107,1332.370696
2248.462408,33753.390955,-74770.920605,-888.247130
2248.464963,148.041188,-75077.358804,1036.288319
2248.467518,-16432.571912,-74617.701505,-592.164754
2248.470073,-41451.532752,-72472.634111,148.041188
2248.472629,47225.139100,-72779.072310,-1480.411884
2248.475184,-48705.550984,-73238.729609,5625.565159
2248.477739,90305.124924,-72166.195912,-4885.359217
2248.480303,-60548.846056,-77069.207099,6957.935855
2248.482866,5181.441594,-74617.701505,7698.141797
2248.485430,52554.621882,-72932.291410,-1184.329507
2248.487994,-26795.455100,-74004.825107,4589.276840
2248.490558,27831.743419,-73238.729609,-3404.947333
2248.493122,-11103.089130,-75230.577904,5181.441594
2248.495686,6809.894666,-75537.016103,-1036.288319
2248.498249,17172.777854,-75383.797003,2664.741391
2248.500813,-10066.800811,-75843.454302,-3997.112087
2248.503377,24574.837274,-72319.415011,-3256.906145
2248.505941,-26647.413912,-74004.825107,3997.112087
2248.508505,-8142.265362,-75383.797003,444.123565
2248.511069,-8142.265362,-74004.825107,8290.306550
2248.513632,-5033.400406,-73391.948708,2072.576638
2248.516196,3552.988522,-74617.701505,888.247130
2248.518760,-6513.812290,-76303.111601,1480.411884
2248.521324,-2960.823768,-73238.729609,592.164754
2248.523888,-11103.089130,-74311.263306,5181.441594
2248.526452,12731.542202,-72166.195912,3997.112087
2248.529016,2072.576638,-74464.482406,4441.235652
2248.531579,10066.800811,-74770.920605,-1628.453072
2248.534143,1924.535449,-77222.426198,6661.853478
2248.536707,-21614.013506,-74617.701505,-740.205942
2248.539271,23094.425390,-74158.044206,-0.000000
2248.541835,-296.082377,-73698.386908,1184.329507
2248.544399,-26795.455100,-73391.948708,740.205942
2248.546962,-7846.182985,-74004.825107,6217.729913
2248.549526,-25018.960840,-75996.673402,5033.400406
2248.552090,-9178.553681,-73391.948708,148.041188
2248.554654,-6957.935855,-75383.797003,740.205942
2248.557218,-9178.553681,-74004.825107,6513.812290
2248.559782,2516.700203,-74158.044206,2220.617826
2248.562345,-16728.654289,-74158.044206,3849.070898
2248.564909,-740.205942,-75537.016103,3404.947333
2248.567473,-11991.336260,-74311.263306,296.082377
2248.570037,8142.265362,-72625.853210,1036.288319
2248.572601,20873.807564,-74311.263306,-1480.411884
2248.575165,12583.501014,-74464.482406,4293.194464
2248.577728,6069.688724,-75230.577904,-2072.576638
2248.580292,-3108.864956,-73391.948708,592.164754
2248.582862,-1628.453072,-73698.386908,3404.947333
2248.585432,8734.430116,-73698.386908,1924.535449
2248.588002,35677.926404,-73238.729609,3108.864956
2248.590572,14211.954086,-74311.263306,-592.164754
2248.593142,24278.754898,-73851.606007,-2368.659014
2248.595712,-35825.967593,-73545.167808,3849.070898
2248.598282,-14359.995275,-72779.072310,-592.164754
2248.600852,50334.004056,-74158.044206,592.164754
2248.603421,-59216.475360,-75383.797003,5921.647536
2248.605991,66026.370026,-71553.319513,-14508.036463
2248.608561,-2812.782580,-75690.235202,6217.729913
2248.611131,17912.983796,-72625.853210,-592.164754
2248.613701,24130.713709,-72779.072310,-2812.782580
2248.616271,-25611.125593,-74004.825107,8734.430116
2248.618841,35529.885216,-71400.100414,-8290.306550
2248.621411,-2368.659014,-73545.167808,6957.935855
2248.623981,19245.354492,-74004.825107,-2516.700203
2248.626551,6809.894666,-75383.797003,296.082377
2248.629121,3404.947333,-74158.044206,3256.906145
2248.631690,-7994.224174,-73085.510509,296.082377
2248.634260,-27239.578666,-75230.577904,6365.771101
2248.636830,-1184.329507,-73698.386908,6217.729913
2248.639400,-7994.224174,-74004.825107,1036.288319
2248.641970,4145.153275,-75077.358804,1776.494261
2248.644540,-4145.153275,-76456.330700,-444.123565
2248.647110,-148.041188,-74617.701505,-444.123565
2248.649680,-29904.320057,-74311.263306,4885.359217
2248.652250,-30496.484810,-73851.606007,3849.070898
2248.654820,22798.343014,-72779.072310,1924.535449
2248.657390,-24722.878463,-75077.358804,5033.400406
2248.659959,-10066.800811,-74924.139704,-2220.617826
2248.662529,-3404.947333,-75383.797003,-888.247130
2248.665099,-11695.253884,-74770.920605,4441.235652
2248.667669,14063.912898,-74464.482406,10955.047942
2248.670239,-21614.013506,-73698.386908,5921.647536
2248.672809,21762.054695,-74770.920605,2368.659014
2248.675379,-2960.823768,-75690.235202,6513.812290
2248.677949,-9474.636058,-72779.072310,-1184.329507
2248.680519,5033.400406,-73391.948708,1924.535449
2248.683089,-19837.519246,-73851.606007,4737.318029
2248.685664,12731.542202,-72319.415011,1480.411884
2248.688239,-15248.242405,-74464.482406,3108.864956
2248.690814,3552.988522,-73085.510509,2664.741391
2248.693389,7402.059420,-74464.482406,2960.823768
2248.695964,10510.924376,-73238.729609,-888.247130
2248.698539,27683.702231,-74617.701505,-296.082377
2248.701114,2072.576638,-74004.825107,444.123565
2248.703689,11399.171507,-74770.920605,592.164754
2248.706264,-5921.647536,-73698.386908,3701.029710
2248.708839,4441.235652,-73545.167808,740.205942
2248.711414,10807.006753,-74464.482406,740.205942
2248.713988,26499.372724,-75077.358804,2072.576638
2248.716563,24278.754898,-75077.358804,-1776.494261
2248.719138,8290.306550,-75383.797003,2368.659014
2248.721713,-3256.906145,-75383.797003,3256.906145
2248.724288,12879.583391,-73851.606007,-1332.370696
2248.726863,-7402.059420,-74158.044206,3997.112087
2248.729438,8734.430116,-73698.386908,740.205942
2248.732013,35677.926404,-72932.291410,-3997.112087
2248.734588,-6069.688724,-73391.948708,888.247130
2248.737163,3701.029710,-74464.482406,-5921.647536
2248.739738,-16580.613101,-74004.825107,1332.370696
2248.742313,5921.647536,-72472.634111,-0.000000
2248.744888,8142.265362,-73698.386908,740.205942
2248.747463,16136.489536,-74311.263306,1480.411884
2248.750038,1184.329507,-75383.797003,-1184.329507
2248.752613,10955.047942,-74770.920605,-1036.288319
2248.755188,-21910.095883,-74311.263306,6365.771101
2248.757763,-16432.571912,-75230.577904,1036.288319
2248.760338,1036.288319,-72625.853210,7105.977043
2248.762913,-8438.347739,-73085.510509,2812.782580
2248.765488,5773.606348,-75383.797003,-888.247130
2248.768063,-4441.235652,-76303.111601,-0.000000
2248.770638,-9622.677246,-74311.263306,1184.329507
2248.773213,-6513.812290,-73391.948708,3256.906145
2248.775788,6957.935855,-71706.538613,6957.935855
2248.778363,-3701.029710,-74770.920605,592.164754
2248.780938,9622.677246,-74770.920605,-888.247130
2248.783513,-10066.800811,-77222.426198,7105.977043
2248.786088,-12139.377449,-74770.920605,-3108.864956
2248.788667,12879.583391,-72472.634111,4293.194464
2248.791246,-49741.839302,-75077.358804,6365.771101
2248.793825,19393.395680,-72779.072310,-4737.318029
2248.796404,-5329.482782,-75383.797003,9474.636058
2248.798983,-5477.523971,-73391.948708,-4441.235652
2248.801562,-11103.089130,-75537.016103,2368.659014
2248.804141,-9770.718434,-74004.825107,2960.823768
2248.806720,-9326.594869,-73238.729609,-0.000000
2248.809299,-13915.871710,-74004.825107,10955.047942
2248.811878,-1480.411884,-74770.920605,-4885.359217
2248.814457,-14952.160028,-74617.701505,5329.482782
2248.817036,11547.212695,-75383.797003,-444.123565
2248.819615,13915.871710,-72779.072310,-1332.370696
2248.822194,15988.448347,-74158.044206,740.205942
2248.824773,10658.965565,-73545.167808,-2072.576638
2248.827352,-2072.576638,-74770.920605,3256.906145
2248.829931,-1036.288319,-74004.825107,2220.617826
2248.832510,6365.771101,-72932.291410,1036.288319
2248.835089,-5477.523971,-75230.577904,3404.947333
2248.837668,12139.377449,-75996.673402,-2072.576638
2248.840247,6661.853478,-75230.577904,3108.864956
2248.842826,-13767.830521,-75690.235202,-1036.288319
2248.845405,26203.290347,-72625.853210,-2368.659014
2248.847984,24722.878463,-73545.167808,-740.205942
2248.850563,-27683.702231,-73698.386908,7698.141797
2248.853142,32124.937883,-72472.634111,-740.205942
2248.855721,2368.659014,-71706.538613,-9474.636058
2248.858300,-25315.043216,-74004.825107,2812.782580
2248.860879,16580.613101,-74004.825107,-2664.741391
2248.863458,-14656.077652,-73085.510509,4145.153275
2248.866037,7550.100608,-74770.920605,-1184.329507
2248.868616,14804.118840,-75996.673402,5625.565159
2248.871195,-148.041188,-75077.358804,-296.082377
2248.873774,15840.407159,-74770.920605,-1776.494261
2248.876353,-5477.523971,-75230.577904,3849.070898
2248.878932,-18505.148550,-74617.701505,2516.700203
2248.881511,-14211.954086,-75537.016103,2072.576638
2248.884090,-13767.830521,-72779.072310,5773.606348
2248.886669,592.164754,-73391.948708,-888.247130
2248.889248,1480.411884,-74770.920605,1184.329507
2248.891829,-2664.741391,-75690.235202,5181.441594
2248.894410,-19985.560434,-73851.606007,-1924.535449
2248.896991,-27239.578666,-73698.386908,6809.894666
2248.899572,-12287.418637,-74158.044206,2072.576638
2248.902153,-6957.935855,-74004.825107,-6957.935855
2248.904734,39675.038491,-74004.825107,592.164754
2248.907315,-98447.390286,-78141.740796,13027.624579
2248.909896,81718.735997,-73238.729609,-11547.212695
2248.912477,-38638.750172,-76149.892501,14508.036463
2248.915058,-46336.891969,-73238.729609,-148.041188
2248.917639,74316.676577,-72779.072310,-2368.659014
2248.920220,-59364.516548,-78754.617194,16136.489536
2248.922801,8734.430116,-73698.386908,-11399.171507
2248.925382,-3997.112087,-76456.330700,11991.336260
2248.927963,-29164.114115,-72472.634111,2516.700203
2248.930544,13323.706956,-72932.291410,888.247130
2248.933125,-22206.178260,-73238.729609,3108.864956
2248.935706,9178.553681,-73851.606007,-2516.700203
2248.938287,-2220.617826,-74464.482406,6809.894666
2248.940868,14211.954086,-73698.386908,-296.082377
2248.943449,14063.912898,-74311.263306,-2368.659014
2248.946030,7402.059420,-73391.948708,1332.370696
2248.948611,5773.606348,-75230.577904,444.123565
2248.951192,-2960.823768,-73545.167808,2220.617826
2248.953773,148.041188,-74004.825107,2368.659014
2248.956354,24722.878463,-73391.948708,-592.164754
2248.958935,5773.606348,-74617.701505,-148.041188
2248.961516,-2072.576638,-75690.235202,-1036.288319
2248.964097,26351.331535,-72625.853210,-1776.494261
2248.966678,-36270.091158,-75843.454302,7254.018232
2248.969259,17320.819043,-72932.291410,-5181.441594
2248.971840,13175.665768,-74924.139704,3997.112087
2248.974421,19393.395680,-73391.948708,-2220.617826
2248.977002,2368.659014,-72472.634111,2960.823768
2248.979583,-1628.453072,-75843.454302,296.082377
2248.982165,-10955.047942,-73851.606007,-296.082377
2248.984746,10658.965565,-74924.139704,4885.359217
2248.987327,2516.700203,-73545.167808,592.164754
2248.989908,15248.242405,-72932.291410,1628.453072
2248.992489,5773.606348,-73698.386908,-5773.606348
2248.995071,10955.047942,-74617.701505,3701.029710
2248.997654,-14804.118840,-74770.920605,4589.276840
2249.000237,-22798.343014,-74770.920605,-1036.288319
2249.002819,-6513.812290,-73851.606007,8586.388927
2249.005402,-16284.530724,-72319.415011,592.164754
2249.007984,1036.288319,-74311.263306,-1628.453072
2249.010567,-592.164754,-75690.235202,1628.453072
2249.013150,444.123565,-75843.454302,3108.864956
2249.015732,-11695.253884,-72932.291410,5477.523971
2249.018315,6957.935855,-70940.443115,3701.029710
2249.020898,-20725.766376,-75077.358804,5625.565159
2249.023480,15692.365970,-74617.701505,-5033.400406
2249.026063,-14804.118840,-76149.892501,9030.512492
2249.028646,-10214.842000,-74158.044206,-3256.906145
2249.031228,18505.148550,-72319.415011,2516.700203
2249.033811,-68098.946664,-75383.797003,7846.182985
2249.036393,-7402.059420,-73238.729609,-6809.894666
2249.038976,-18505.148550,-76762.768900,4145.153275
2249.041559,-18949.272115,-74464.482406,-888.247130
2249.044141,13471.748144,-73085.510509,-1776.494261
2249.046724,-23094.425390,-73085.510509,7846.182985
2249.049307,13767.830521,-72625.853210,-4145.153275
2249.051889,-23982.672521,-74311.263306,15100.201217
2249.054472,-4737.318029,-74004.825107,-7402.059420
2249.057055,-5625.565159,-74311.263306,-2812.782580
2249.059637,10510.924376,-74770.920605,4885.359217
2249.062220,20873.807564,-73851.606007,-5033.400406
2249.064802,13027.624579,-73545.167808,6957.935855
2249.067385,4737.318029,-74311.263306,-1332.370696
2249.069968,-3404.947333,-74158.044206,1036.288319
2249.072550,4145.153275,-74311.263306,2072.576638
2249.075133,21910.095883,-72166.195912,-1924.535449
2249.077716,28275.866984,-72319.415011,1036.288319
2249.080298,-7402.059420,-75077.358804,-740.205942
2249.082881,17172.777854,-73698.386908,1184.329507
2249.085464,3552.988522,-74158.044206,-296.082377
2249.088046,-28571.949361,-74311.263306,9770.718434
2249.090629,2664.741391,-72012.976812,-4145.153275
2249.093212,29608.237680,-72779.072310,-8586.388927
2249.095794,9622.677246,-74004.825107,7698.141797
2249.098378,740.205942,-73085.510509,-8290.306550
2249.100962,4441.235652,-73545.167808,3552.988522
2249.103546,-1184.329507,-75077.358804,2516.700203
2249.106130,11251.130318,-74770.920605,-2664.741391
2249.108714,8290.306550,-75996.673402,8438.347739
2249.111298,6661.853478,-74311.263306,-7698.141797
2249.113882,3997.112087,-73851.606007,2516.700203
2249.116466,-444.123565,-75690.235202,2516.700203
2249.119051,-25167.002028,-74158.044206,888.247130
2249.121635,-5773.606348,-75230.577904,5181.441594
2249.124219,-6365.771101,-71246.881314,2664.741391
2249.126803,-4885.359217,-74158.044206,-148.041188
2249.129387,1628.453072,-74924.139704,2516.700203
2249.131971,1332.370696,-75230.577904,1332.370696
2249.134555,-32717.102636,-74464.482406,3849.070898
2249.137139,-26055.249158,-74004.825107,5625.565159
2249.139723,-36122.049970,-74770.920605,1776.494261
2249.142307,-12731.542202,-75690.235202,2516.700203
2249.144891,58180.187041,-72932.291410,-4737.318029
2249.147475,-26499.372724,-74924.139704,9326.594869
2249.150059,-90305.124924,-78141.740796,18505.148550
2249.152643,72096.058751,-70327.566716,-11399.171507
2249.155227,-43968.232955,-75383.797003,9770.718434
2249.157811,-1332.370696,-71093.662214,-7994.224174
2249.160395,3997.112087,-74617.701505,1776.494261
2249.162979,-22946.384202,-75077.358804,6217.729913
2249.165563,6069.688724,-74464.482406,-740.205942
2249.168147,-29164.114115,-74617.701505,10510.924376
2249.170731,-1480.411884,-73851.606007,-1036.288319
2249.173315,-15544.324782,-74924.139704,6809.894666
2249.175900,4589.276840,-73851.606007,444.123565
2249.178484,22354.219448,-74464.482406,-2072.576638
2249.181068,15248.242405,-74924.139704,888.247130
2249.183652,8882.471304,-73698.386908,4441.235652
2249.186236,-1036.288319,-74617.701505,592.164754
2249.188820,296.082377,-74464.482406,3256.906145
2249.191404,2664.741391,-74617.701505,1924.535449
2249.193988,16580.613101,-72472.634111,-2812.782580
2249.196572,25018.960840,-72319.415011,148.041188
2249.199156,9622.677246,-73851.606007,-2072.576638
2249.201740,17320.819043,-74311.263306,2516.700203
2249.204324,-26647.413912,-73698.386908,2368.659014
2249.206908,-0.000000,-73851.606007,3701.029710
2249.209491,-6661.853478,-75077.358804,4441.235652
2249.212075,23242.466579,-71553.319513,-7402.059420
2249.214659,-5477.523971,-73851.606007,-1036.288319
2249.217243,4885.359217,-76303.111601,4145.153275
2249.219827,-13471.748144,-74464.482406,592.164754
2249.222411,3404.947333,-74004.825107,1036.288319
2249.224995,23538.548956,-73391.948708,1628.453072
2249.227579,7550.100608,-74004.825107,740.205942
2249.230162,12287.418637,-75230.577904,-1036.288319
2249.232746,6809.894666,-74464.482406,740.205942
2249.235330,-20429.683999,-74464.482406,3997.112087
2249.237914,-19245.354492,-75537.016103,2664.741391
2249.240498,3256.906145,-71553.319513,9178.553681
2249.243082,-10955.047942,-73851.606007,296.082377
2249.245666,10807.006753,-74924.139704,1924.535449
2249.248250,-13175.665768,-76149.892501,1480.411884
2249.250834,8586.388927,-73851.606007,-2072.576638
2249.253417,-24426.796086,-72779.072310,5625.565159
2249.256001,-20577.725188,-72319.415011,4293.194464
2249.258585,-12287.418637,-74158.044206,3108.864956
2249.261169,-18209.066173,-74617.701505,1776.494261
2249.263753,18801.230927,-74004.825107,-6661.853478
2249.266337,-17764.942608,-73698.386908,2072.576638
2249.268921,-47965.345042,-72012.976812,740.205942
2249.271505,39230.914926,-73545.167808,3256.906145
2249.274088,-37158.338288,-76303.111601,7550.100608
2249.276672,29164.114115,-74158.044206,-4145.153275
2249.279256,-8142.265362,-77682.083497,10955.047942
2249.281840,-4737.318029,-73391.948708,-592.164754
2249.284424,11251.130318,-73545.167808,-1480.411884
2249.287008,-25315.043216,-75077.358804,13619.789333
2249.289592,3108.864956,-73698.386908,-2220.617826
2249.292176,-15100.201217,-74464.482406,1776.494261
2249.294760,22058.137072,-74464.482406,1184.329507
2249.297343,14952.160028,-75077.358804,-2516.700203
2249.299927,14359.995275,-74464.482406,4885.359217
2249.302511,4589.276840,-74158.044206,-592.164754
2249.305095,-3552.988522,-74311.263306,296.082377
2249.307679,6513.812290,-74004.825107,5181.441594
2249.310262,888.247130,-74617.701505,-1628.453072
2249.312846,-4737.318029,-76609.549800,3108.864956
2249.315430,5033.400406,-75690.235202,-1184.329507
2249.318014,-5625.565159,-76609.549800,2960.823768
2249.320597,17320.819043,-73085.510509,1628.453072
2249.323181,12435.459826,-74770.920605,-1924.535449
2249.325765,9622.677246,-75230.577904,5477.523971
2249.328348,592.164754,-75537.016103,9770.718434
2249.330932,11843.295072,-75690.235202,-5181.441594
2249.333516,8438.347739,-73085.510509,1184.329507
2249.336100,19837.519246,-74770.920605,-740.205942
2249.338683,592.164754,-72472.634111,-2368.659014
2249.341267,9030.512492,-74004.825107,5329.482782
2249.343851,11399.171507,-74311.263306,-888.247130
2249.346434,3701.029710,-74924.139704,1480.411884
2249.349018,12435.459826,-73851.606007,-2664.741391
2249.351602,-22650.301825,-73851.606007,4589.276840
2249.354186,-17172.777854,-75996.673402,592.164754
2249.356769,444.123565,-71400.100414,9918.759623
2249.359353,-7402.059420,-74770.920605,3256.906145
2249.361937,9030.512492,-75383.797003,1628.453072
2249.364521,-13027.624579,-75996.673402,2812.782580
2249.367104,12435.459826,-72932.291410,-4293.194464
2249.369688,-21762.054695,-71859.757712,7994.224174
2249.372272,-24278.754898,-72779.072310,3404.947333
2249.374855,-26647.413912,-74311.263306,-592.164754
2249.377439,38934.832549,-74158.044206,-4293.194464
2249.380023,-14508.036463,-77682.083497,3997.112087
2249.382607,-67210.699534,-73391.948708,5329.482782
2249.385190,92229.660373,-71706.538613,-5181.441594
2249.387774,-104961.202576,-79214.274493,22502.260637
2249.390358,79053.994606,-70480.785816,-12583.501014
2249.392942,-35825.967593,-78141.740796,9178.553681
2249.395525,19245.354492,-75383.797003,-5625.565159
2249.398109,24130.713709,-72625.853210,-7698.141797
2249.400693,-45004.521274,-73085.510509,15988.448347
2249.403276,27239.578666,-71706.538613,-9918.759623
2249.405860,-35825.967593,-76303.111601,19097.313304
2249.408444,19985.560434,-71859.757712,-8586.388927
2249.411027,18061.024985,-75383.797003,148.041188
2249.413610,18209.066173,-74158.044206,296.082377
2249.416194,15840.407159,-72779.072310,-4441.235652
2249.418777,-10214.842000,-74464.482406,7550.100608
2249.421360,6365.771101,-73085.510509,740.205942
2249.423944,4441.235652,-74311.263306,1332.370696
2249.426527,32865.143825,-72166.195912,-2516.700203
2249.429111,12731.542202,-75077.358804,1628.453072
2249.431694,-3552.988522,-73698.386908,-2368.659014
2249.434277,14952.160028,-72319.415011,-3552.988522
2249.436861,17912.983796,-74311.263306,1924.535449
2249.439444,14952.160028,-72779.072310,-2664.741391
2249.442027,-4589.276840,-75230.577904,11695.253884
2249.444611,18653.189738,-73851.606007,-7105.977043
2249.447194,-5033.400406,-74617.701505,2664.741391
2249.449777,-12287.418637,-74617.701505,-3108.864956
2249.452361,4441.235652,-73085.510509,2220.617826
2249.454944,6661.853478,-74924.139704,7698.141797
2249.457527,11695.253884,-72932.291410,-2072.576638
2249.460111,14359.995275,-74924.139704,444.123565
2249.462694,11547.212695,-74464.482406,-3701.029710
2249.465278,-8438.347739,-73698.386908,5181.441594
2249.467861,-33605.349767,-76915.987999,740.205942
2249.470444,11547.212695,-70327.566716,7994.224174
2249.473028,-17912.983796,-74004.825107,8290.306550
2249.475611,10214.842000,-75383.797003,-3256.906145
2249.478194,-3404.947333,-75537.016103,1036.288319
2249.480778,5921.647536,-74311.263306,888.247130
2249.483361,-35677.926404,-72779.072310,4589.276840
2249.485944,-17468.860231,-72319.415011,4885.359217
2249.488528,-7994.224174,-74158.044206,1480.411884
2249.491111,-21317.931130,-73238.729609,1036.288319
2249.493695,5329.482782,-75230.577904,-444.123565
2249.496278,3404.947333,-74464.482406,-2220.617826
2249.498862,-49001.633360,-73545.167808,3997.112087
2249.501445,17764.942608,-71706.538613,-3256.906145
2249.504029,-17912.983796,-73238.729609,9178.553681
2249.506612,5773.606348,-73545.167808,-1628.453072
2249.509196,-4145.153275,-76149.892501,4737.318029
2249.511779,-11251.130318,-74770.920605,2664.741391
2249.514363,-2664.741391,-74004.825107,888.247130
2249.516946,-11547.212695,-74158.044206,4441.235652
2249.519530,-3849.070898,-73085.510509,6513.812290
2249.522113,6217.729913,-73698.386908,-888.247130
2249.524697,23982.672521,-73698.386908,444.123565
2249.527280,18209.066173,-76609.549800,-2812.782580
2249.529864,12731.542202,-73851.606007,444.123565
2249.532447,-3404.947333,-73545.167808,4589.276840
2249.535030,592.164754,-73391.948708,296.082377
2249.537614,-148.041188,-74464.482406,3997.112087
2249.540197,23538.548956,-74311.263306,-444.123565
2249.542781,35381.844028,-74158.044206,148.041188
2249.545364,9178.553681,-74770.920605,-2960.823768
2249.547948,19837.519246,-75077.358804,444.123565
2249.550531,-14952.160028,-73545.167808,10214.842000
2249.553115,-27239.578666,-74770.920605,7994.224174
2249.555698,68246.987852,-72932.291410,-8290.306550
2249.558282,-17616.901420,-76303.111601,6809.894666
2249.560865,46929.056723,-72932.291410,-4441.235652
2249.563449,-1776.494261,-74004.825107,6217.729913
2249.566032,740.205942,-74464.482406,-296.082377
2249.568616,20725.766376,-74924.139704,2960.823768
2249.571199,-4737.318029,-74924.139704,5033.400406
2249.573783,19541.436869,-73851.606007,-1480.411884
2249.576366,4145.153275,-75690.235202,1924.535449
2249.578950,-18357.107362,-75690.235202,5329.482782
2249.581533,-18357.107362,-75383.797003,-592.164754
2249.584117,5477.523971,-71859.757712,10807.006753
2249.586700,-18949.272115,-72779.072310,296.082377
2249.589284,8438.347739,-74004.825107,2812.782580
2249.591867,-592.164754,-76303.111601,-2516.700203
2249.594413,-17468.860231,-75996.673402,592.164754
2249.596959,-21021.848753,-75537.016103,9918.759623
2249.599506,5773.606348,-72012.976812,1480.411884
2249.602052,-21465.972318,-74924.139704,6365.771101
2249.604598,-444.123565,-75383.797003,-2516.700203
2249.607144,11251.130318,-72472.634111,592.164754
2249.609690,-80682.447678,-78141.740796,7402.059420
2249.612236,47521.221476,-71400.100414,-5181.441594
2249.614783,-50037.921679,-73391.948708,9918.759623
2249.617329,-29312.155303,-73851.606007,-2368.659014
2249.619875,13027.624579,-75996.673402,3256.906145
2249.622421,-31532.773129,-74158.044206,3552.988522
2249.624967,21910.095883,-73085.510509,-3701.029710
2249.627513,-23390.507767,-75230.577904,13175.665768
2249.630059,-10066.800811,-73545.167808,-2516.700203
2249.632606,-7846.182985,-74004.825107,4293.194464
2249.635152,12879.583391,-74004.825107,296.082377
2249.637698,28275.866984,-74924.139704,-3256.906145
2249.640244,2072.576638,-76456.330700,5329.482782
2249.642790,17172.777854,-73698.386908,-6217.729913
2249.645336,-8734.430116,-73391.948708,3552.988522
2249.647882,-7254.018232,-72625.853210,4441.235652
2249.650429,22206.178260,-74464.482406,1480.411884
2249.652975,8734.430116,-76609.549800,5477.523971
2249.655521,29904.320057,-74924.139704,-2368.659014
2249.658067,17616.901420,-75537.016103,2072.576638
2249.660613,1628.453072,-73698.386908,1036.288319
2249.663159,-22354.219448,-74311.263306,10066.800811
2249.665706,13767.830521,-73085.510509,-296.082377
2249.668252,39971.120868,-74004.825107,888.247130
2249.670798,26499.372724,-75077.358804,-444.123565
2249.673344,22946.384202,-75077.358804,-4737.318029
2249.675890,-7550.100608,-75996.673402,6365.771101
2249.678436,9178.553681,-74924.139704,1184.329507
2249.680982,2220.617826,-73391.948708,3997.112087
2249.683529,11991.336260,-74464.482406,1332.370696
2249.686075,16728.654289,-74617.701505,-3404.947333
2249.688621,-17912.983796,-75383.797003,5477.523971
2249.691167,-33161.226202,-75996.673402,296.082377
2249.693713,13027.624579,-70327.566716,11103.089130
2249.696266,-26795.455100,-72625.853210,2664.741391
2249.698819,12583.501014,-74617.701505,-1628.453072
2249.701372,-8438.347739,-75843.454302,3849.070898
2249.703925,11103.089130,-74311.263306,-444.123565
2249.706478,-13471.748144,-72625.853210,5329.482782
2249.709031,-34049.473332,-72625.853210,6513.812290
2249.711584,-6957.935855,-73085.510509,-592.164754
2249.714137,11991.336260,-74311.263306,2072.576638
2249.716690,-16284.530724,-75537.016103,2812.782580
2249.719242,5329.482782,-72779.072310,-1924.535449
2249.721795,-47225.139100,-77069.207099,9622.677246
2249.724348,2220.617826,-74770.920605,9326.594869
2249.726901,-7698.141797,-74004.825107,-4145.153275
2249.729454,12731.542202,-73545.167808,6365.771101
2249.732007,2220.617826,-75230.577904,-1036.288319
2249.734560,1184.329507,-75230.577904,-1184.329507
2249.737113,-13323.706956,-75230.577904,3701.029710
2249.739666,-23094.425390,-73851.606007,4293.194464
2249.742219,-4885.359217,-72625.853210,1776.494261
2249.744772,22354.219448,-75077.358804,-0.000000
2249.747325,28127.825796,-74770.920605,-4145.153275
2249.749878,8438.347739,-76303.111601,2516.700203
2249.752430,4737.318029,-74311.263306,-1332.370696
2249.754983,-6365.771101,-74770.920605,5477.523971
2249.757536,-296.082377,-73391.948708,3997.112087
2249.760089,31384.731941,-73238.729609,1036.288319
2249.762642,16876.695478,-75230.577904,1628.453072
2249.765195,15988.448347,-75690.235202,-3108.864956
2249.767748,25907.207970,-76456.330700,-740.205942
2249.770301,-27091.537477,-74311.263306,9030.512492
2249.772854,37158.338288,-72472.634111,740.205942
2249.775407,-6957.935855,-74770.920605,5181.441594
2249.777960,-9474.636058,-76149.892501,10955.047942
2249.780513,54923.280896,-73851.606007,-8882.471304
2249.783065,444.123565,-75537.016103,7846.182985
2249.785618,7105.977043,-74464.482406,-5181.441594
2249.788171,5921.647536,-74311.263306,5921.647536
2249.790724,11547.212695,-74770.920605,5033.400406
2249.793277,11843.295072,-73391.948708,-4885.359217
2249.795830,9770.718434,-74464.482406,2960.823768
2249.798389,-19689.478057,-75996.673402,-444.123565
2249.800947,-27831.743419,-75690.235202,-148.041188
2249.803506,7846.182985,-71859.757712,14508.036463
2249.806065,-22946.384202,-72932.291410,2960.823768
2249.808623,10362.883188,-74464.482406,2960.823768
2249.811182,-6513.812290,-76456.330700,-5181.441594
2249.813741,3997.112087,-73851.606007,-148.041188
2249.816299,-20429.683999,-74924.139704,10955.047942
2249.818858,-23686.590144,-72319.415011,592.164754
2249.821416,14952.160028,-73851.606007,1628.453072
2249.823975,15988.448347,-74924.139704,2960.823768
2249.826534,-43079.985824,-74311.263306,2960.823768
2249.829092,9326.594869,-73238.729609,-4737.318029
2249.831651,-22946.384202,-75077.358804,3997.112087
2249.834210,-43968.232955,-73545.167808,6069.688724
2249.836768,5477.523971,-71859.757712,-3108.864956
2249.839327,-14656.077652,-75383.797003,4885.359217
2249.841886,-1628.453072,-75230.577904,444.123565
2249.844444,-12287.418637,-75077.358804,1924.535449
2249.847003,-9030.512492,-73238.729609,-2072.576638
2249.849562,-16136.489536,-74617.701505,10510.924376
2249.852120,4589.276840,-72472.634111,296.082377
2249.854679,25018.960840,-72779.072310,-1332.370696
2249.857237,21910.095883,-76762.768900,-1036.288319
2249.859796,10510.924376,-75537.016103,-3404.947333
2249.862355,-3552.988522,-74158.044206,4737.318029
2249.864913,1480.411884,-72166.195912,-592.164754
2249.867472,-6957.935855,-72625.853210,5625.565159
2249.870031,9326.594869,-72472.634111,-3108.864956
2249.872589,15840.407159,-73698.386908,-8882.471304
2249.875148,-25907.207970,-76303.111601,7402.059420
2249.877707,46632.974346,-74158.044206,-6661.853478
2249.880265,-69135.234983,-74004.825107,8142.265362
2249.882824,79646.159359,-72932.291410,-3849.070898
2249.885382,-26055.249158,-74617.701505,7105.977043
2249.887941,29460.196492,-71246.881314,-5033.400406
2249.890500,8586.388927,-75843.454302,148.041188
2249.893058,-34197.514520,-75843.454302,11103.089130
2249.895617,37750.503042,-72625.853210,-4737.318029
2249.898176,-6809.894666,-75996.673402,12879.583391
2249.900739,16432.571912,-72625.853210,-3256.906145
2249.903302,20873.807564,-74311.263306,-2516.700203
2249.905866,-17172.777854,-76456.330700,7846.182985
2249.908429,-21169.889941,-77222.426198,-2516.700203
2249.910992,2220.617826,-71400.100414,9622.677246
2249.913556,-21762.054695,-71093.662214,-592.164754
2249.916119,9178.553681,-74464.482406,3108.864956
2249.918682,-6513.812290,-75843.454302,1776.494261
2249.921246,-4293.194464,-76609.549800,-0.000000
2249.923809,-17320.819043,-75537.016103,5773.606348
2249.926372,6217.729913,-72319.415011,3997.112087
2249.928936,-19985.560434,-73698.386908,3849.070898
2249.931499,740.205942,-74617.701505,-1776.494261
2249.934062,25907.207970,-74464.482406,-0.000000
2249.936626,592.164754,-75077.358804,5773.606348
2249.939189,-17468.860231,-74464.482406,-148.041188
2249.941752,-8438.347739,-73545.167808,7105.977043
2249.944316,-29164.114115,-73545.167808,2368.659014
2249.946879,-592.164754,-74924.139704,2220.617826
2249.949443,9474.636058,-74004.825107,-2812.782580
2249.952006,-6809.894666,-75843.454302,3997.112087
2249.954569,-13323.706956,-74770.920605,-1924.535449
2249.957133,-23390.507767,-72319.415011,6957.935855
2249.959696,7402.059420,-74004.825107,1480.411884
2249.962259,33309.267390,-73545.167808,740.205942
2249.964823,26943.496289,-75690.235202,-2368.659014
2249.967386,6365.771101,-76303.111601,-3552.988522
2249.969949,-4145.153275,-74617.701505,3108.864956
2249.972513,2516.700203,-72625.853210,3256.906145
2249.975076,-12139.377449,-71553.319513,1184.329507
2249.977639,5921.647536,-74158.044206,1332.370696
2249.980203,-5033.400406,-76303.111601,-2960.823768
2249.982766,33309.267390,-75843.454302,-2072.576638
2249.985329,-6513.812290,-75537.016103,3404.947333
2249.987893,13175.665768,-73238.729609,2960.823768
2249.990456,-1332.370696,-73545.167808,7550.100608
2249.993019,22650.301825,-72319.415011,592.164754
2249.995583,5477.523971,-73238.729609,-3997.112087
2249.998146,-296.082377,-73698.386908,-1036.288319
2250.000709,-2220.617826,-74924.139704,-2516.700203
2250.003276,-1332.370696,-74617.701505,4737.318029
2250.005842,11991.336260,-74004.825107,2960.823768
2250.008408,11695.253884,-74004.825107,1924.535449
2250.010974,11695.253884,-74464.482406,-0.000000
2250.013540,-25759.166782,-75537.016103,1036.288319
2250.016107,-22206.178260,-77682.083497,148.041188
2250.018673,7550.100608,-72012.976812,11547.212695
2250.021239,-26943.496289,-72166.195912,-888.247130
2250.023805,10658.965565,-73085.510509,3997.112087
2250.026371,4589.276840,-75383.797003,-2072.576638
2250.028938,-26203.290347,-74924.139704,1332.370696
2250.031504,-17024.736666,-74464.482406,5477.523971
2250.034070,-15248.242405,-72779.072310,2220.617826
2250.036636,-35233.802839,-73391.948708,5477.523971
2250.039203,11399.171507,-73085.510509,-6069.688724
2250.041769,-11251.130318,-72625.853210,296.082377
2250.044335,-56255.651592,-79061.055394,10214.842000
2250.046901,6809.894666,-74004.825107,-2368.659014
2250.049467,-39675.038491,-77222.426198,13027.624579
2250.052034,-3404.947333,-74770.920605,-5477.523971
2250.054600,7846.182985,-74004.825107,6809.894666
2250.057166,-6217.729913,-74464.482406,-1184.329507
2250.059732,6513.812290,-74770.920605,1628.453072
2250.062298,-21021.848753,-75690.235202,6809.894666
2250.064865,-3552.988522,-72779.072310,-5773.606348
2250.067431,11399.171507,-73545.167808,3552.988522
2250.069997,30200.402434,-73851.606007,-1184.329507
2250.072563,16432.571912,-74311.263306,-0.000000
2250.075129,2368.659014,-75690.235202,-296.082377
2250.077696,592.164754,-74464.482406,148.041188
2250.080262,-2368.659014,-74464.482406,8290.306550
2250.082828,296.082377,-74004.825107,1332.370696
2250.085394,17468.860231,-74158.044206,-2220.617826
2250.087961,-12139.377449,-75077.358804,740.205942
2250.090527,33457.308578,-73391.948708,-4145.153275
2250.093093,18949.272115,-73085.510509,-592.164754
2250.095659,-31236.690752,-74311.263306,10214.842000
2250.098225,41007.409187,-73851.606007,-740.205942
2250.100792,20725.766376,-72166.195912,-2812.782580
2250.103358,-1628.453072,-73238.729609,-1628.453072
2250.105926,17320.819043,-75383.797003,-2368.659014
2250.108495,-15988.448347,-75690.235202,6069.688724
2250.111063,23686.590144,-74158.044206,-2812.782580
2250.113632,-8882.471304,-75383.797003,6809.894666
2250.116200,23834.631332,-72472.634111,-296.082377
2250.118769,-16136.489536,-73698.386908,1924.535449
2250.121337,-28571.949361,-77069.207099,3404.947333
2250.123906,2220.617826,-73545.167808,1480.411884
2250.126475,-21317.931130,-72625.853210,2220.617826
2250.129043,4441.235652,-73545.167808,2516.700203
2250.131612,-2072.576638,-75996.673402,2072.576638
2250.134180,-22946.384202,-75996.673402,2960.823768
2250.136749,-26943.496289,-74617.701505,-1332.370696
2250.139317,-35529.885216,-72779.072310,592.164754
2250.141886,14211.954086,-73545.167808,-740.205942
2250.144454,-12435.459826,-75690.235202,5033.400406
2250.147023,1924.535449,-72472.634111,-0.000000
2250.149591,-9474.636058,-76915.987999,6661.853478
2250.152160,-48557.509795,-72932.291410,3256.906145
2250.154728,4441.235652,-74924.139704,444.123565
2250.157297,-26203.290347,-75077.358804,2960.823768
2250.159865,-1036.288319,-73545.167808,-592.164754
2250.162434,-5033.400406,-75843.454302,2960.823768
2250.165002,-14063.912898,-73851.606007,2368.659014
2250.167571,1628.453072,-75383.797003,1776.494261
2250.170139,-24870.919651,-74004.825107,-296.082377
2250.172708,23390.507767,-73545.167808,2072.576638
2250.175276,21317.931130,-73851.606007,-740.205942
2250.177845,15100.201217,-74158.044206,888.247130
2250.180414,-1332.370696,-76609.549800,740.205942
2250.182982,1184.329507,-73545.167808,-740.205942
2250.185551,9326.594869,-73545.167808,8438.347739
2250.188119,28571.949361,-72625.853210,-2960.823768
2250.190688,5773.606348,-74770.920605,5033.400406
2250.193256,24870.919651,-74311.263306,-9622.677246
2250.195825,47965.345042,-72319.415011,-296.082377
2250.198393,-86308.012837,-77222.426198,15248.242405
2250.200962,76981.417968,-71246.881314,-14952.160028
2250.203530,-37306.379477,-74158.044206,4885.359217
2250.206099,3701.029710,-73391.948708,-5181.441594
2250.208670,32272.979071,-75230.577904,6661.853478
2250.211240,-30644.525999,-74770.920605,-148.041188
2250.213811,43968.232955,-74464.482406,-4293.194464
2250.216382,-10658.965565,-76149.892501,11695.253884
2250.218953,12139.377449,-71859.757712,-6069.688724
2250.221523,10955.047942,-74617.701505,1628.453072
2250.224094,-24426.796086,-75383.797003,4737.318029
2250.226665,-15692.365970,-75537.016103,-3701.029710
2250.229236,-13619.789333,-74617.701505,11695.253884
2250.231807,-8586.388927,-71400.100414,-592.164754
2250.234377,4589.276840,-74770.920605,2516.700203
2250.236948,-740.205942,-76609.549800,148.041188
2250.239519,13471.748144,-74770.920605,1924.535449
2250.242090,-16284.530724,-74464.482406,6069.688724
2250.244661,-3997.112087,-72472.634111,-444.123565
2250.247231,-6957.935855,-73698.386908,3849.070898
2250.249802,-11843.295072,-75383.797003,2072.576638
2250.252373,-0.000000,-73698.386908,2664.741391
2250.254944,-27831.743419,-75996.673402,5625.565159
2250.257514,-3552.988522,-76303.111601,3256.906145
2250.260085,-13767.830521,-72779.072310,2960.823768
2250.262656,6365.771101,-72472.634111,1924.535449
2250.265227,-2960.823768,-74004.825107,3552.988522
2250.267798,6513.812290,-74924.139704,5181.441594
2250.270368,-14063.912898,-74158.044206,-2368.659014
2250.272939,-14063.912898,-72932.291410,6957.935855
2250.275510,3108.864956,-74770.920605,592.164754
2250.278081,23834.631332,-73085.510509,-148.041188
2250.280651,24870.919651,-74158.044206,296.082377
2250.283222,14508.036463,-74311.263306,-3701.029710
2250.285793,1332.370696,-75996.673402,3849.070898
2250.288364,-3701.029710,-72779.072310,-1776.494261
2250.290935,23242.466579,-70174.347617,-296.082377
2250.293505,10510.924376,-73391.948708,5625.565159
2250.296076,19097.313304,-73238.729609,-5477.523971
2250.298647,14804.118840,-75077.358804,-6217.729913
2250.301218,-12435.459826,-74770.920605,1628.453072
2250.303789,4737.318029,-74617.701505,5181.441594
2250.306359,14508.036463,-74770.920605,296.082377
2250.308930,7402.059420,-75077.358804,10955.047942
2250.311502,21762.054695,-74617.701505,-1480.411884
2250.314073,-12731.542202,-75537.016103,-2960.823768
2250.316645,9178.553681,-75537.016103,4441.235652
2250.319217,-3701.029710,-73851.606007,-444.123565
2250.321788,10510.924376,-73851.606007,296.082377
2250.324360,12731.542202,-72779.072310,148.041188
2250.326931,444.123565,-73698.386908,5329.482782
2250.329503,-23686.590144,-75537.016103,1184.329507
2250.332075,-6809.894666,-75383.797003,2368.659014
2250.334646,-15840.407159,-72166.195912,2664.741391
2250.337218,3256.906145,-72779.072310,-1332.370696
2250.339789,-10214.842000,-74158.044206,2368.659014
2250.342361,16580.613101,-74924.139704,2368.659014
2250.344933,-10658.965565,-73545.167808,592.164754
2250.347504,-8142.265362,-73238.729609,8586.388927
2250.350076,-36714.214723,-75690.235202,4589.276840
2250.352647,9178.553681,-72166.195912,-8290.306550
2250.355219,-1332.370696,-74464.482406,6365.771101
2250.357791,-51814.415940,-75077.358804,592.164754
2250.360362,27683.702231,-73698.386908,-592.164754
2250.362934,-68691.111418,-76609.549800,7846.182985
2250.365505,11843.295072,-73238.729609,-5921.647536
2250.368077,8586.388927,-74464.482406,1480.411884
2250.370649,-27239.578666,-74464.482406,8882.471304
2250.373220,14359.995275,-74311.263306,-1924.535449
2250.375792,-28571.949361,-74924.139704,12879.583391
2250.378364,16580.613101,-73085.510509,-6365.771101
2250.380935,4885.359217,-74311.263306,4145.153275
2250.383507,30200.402434,-74311.263306,-2220.617826
2250.386078,10362.883188,-74770.920605,592.164754
2250.388650,-3108.864956,-75843.454302,3404.947333
2250.391222,6513.812290,-74004.825107,-1036.288319
2250.393793,-16284.530724,-73085.510509,3552.988522
2250.396365,11843.295072,-74311.263306,-2072.576638
2250.398936,25018.960840,-74924.139704,-2072.576638
2250.401508,13027.624579,-75537.016103,3108.864956
2250.404080,-18505.148550,-74004.825107,3849.070898
2250.406651,-12731.542202,-73698.386908,3849.070898
2250.409223,28868.031738,-73085.510509,-5773.606348
2250.411794,-2960.823768,-73085.510509,1332.370696
2250.414367,7994.224174,-74924.139704,-888.247130
2250.416940,2220.617826,-75996.673402,1924.535449
2250.419512,2516.700203,-74924.139704,3849.070898
2250.422085,12139.377449,-74158.044206,-444.123565
2250.424658,-2664.741391,-74617.701505,3701.029710
2250.427230,16728.654289,-74004.825107,-1628.453072
2250.429803,-22798.343014,-73698.386908,6365.771101
2250.432376,-20725.766376,-75230.577904,-1036.288319
2250.434948,-8734.430116,-74311.263306,5329.482782
2250.437521,-12731.542202,-71859.757712,1776.494261
2250.440093,3997.112087,-74004.825107,-1776.494261
2250.442666,-8290.306550,-76609.549800,3849.070898
2250.445239,-5773.606348,-72779.072310,148.041188
2250.447811,-30940.608376,-72166.195912,444.123565
2250.450384,-39526.997303,-72779.072310,9030.512492
2250.452956,-5921.647536,-73545.167808,-4885.359217
2250.455529,-9326.594869,-75996.673402,6069.688724
2250.458102,-21317.931130,-74158.044206,3997.112087
2250.460674,31532.773129,-74617.701505,-1628.453072
2250.463247,-80978.530055,-76149.892501,12287.418637
2250.465820,9918.759623,-72932.291410,-1332.370696
2250.468392,-8734.430116,-74617.701505,4145.153275
2250.470965,-18653.189738,-74617.701505,3256.906145
2250.473537,20281.642811,-74004.825107,-148.041188
2250.476110,-35825.967593,-74770.920605,3108.864956
2250.478683,9326.594869,-72012.976812,-2220.617826
2250.481255,3701.029710,-75230.577904,5329.482782
2250.483828,28127.825796,-73545.167808,-1184.329507
2250.486401,18949.272115,-74464.482406,-148.041188
2250.488973,5625.565159,-74924.139704,296.082377
2250.491546,5329.482782,-75383.797003,-1332.370696
2250.494118,-6809.894666,-72779.072310,3552.988522
2250.496691,1332.370696,-73545.167808,4441.235652
2250.499264,37158.338288,-74464.482406,2516.700203
2250.501836,34641.638086,-74617.701505,-9474.636058
2250.504409,-6513.812290,-75077.358804,6217.729913
2250.506982,-48705.550984,-74464.482406,5773.606348
2250.509554,56107.610404,-72012.976812,-9326.594869
2250.512127,-24870.919651,-73698.386908,5477.523971
2250.514699,22354.219448,-71093.662214,-8290.306550
2250.517239,13323.706956,-75996.673402,9030.512492
2250.519778,-21169.889941,-76456.330700,8586.388927
2250.522317,28571.949361,-72779.072310,-6809.894666
2250.524856,-9770.718434,-75996.673402,10955.047942
2250.527395,21317.931130,-70940.443115,-6217.729913
2250.529935,1184.329507,-74770.920605,2220.617826
2250.532474,-19097.313304,-75690.235202,3108.864956
2250.535013,-23982.672521,-76303.111601,-148.041188
2250.537552,-12287.418637,-73085.510509,12139.377449
2250.540091,-3256.906145,-73238.729609,296.082377
2250.542631,-2516.700203,-72932.291410,3849.070898
2250.545170,10807.006753,-76609.549800,-1332.370696
2250.547709,-5329.482782,-75077.358804,7994.224174
2250.550248,9474.636058,-72625.853210,1332.370696
2250.552787,-23982.672521,-72932.291410,3997.112087
2250.555326,-7994.224174,-76149.892501,4589.276840
2250.557866,2960.823768,-75077.358804,-1184.329507
2250.560405,-1776.494261,-74004.825107,444.123565
2250.562944,-17912.983796,-74924.139704,2960.823768
2250.565483,-444.123565,-72932.291410,888.247130
2250.568022,-6069.688724,-75077.358804,10955.047942
2250.570562,-5033.400406,-74311.263306,-3108.864956
2250.573101,3404.947333,-74004.825107,5921.647536
2250.575640,-4145.153275,-75230.577904,-3256.906145
2250.578179,-11251.130318,-72932.291410,1924.535449
2250.580718,-5773.606348,-74770.920605,6365.771101
2250.583257,21465.972318,-73545.167808,-3108.864956
2250.585797,25759.166782,-74158.044206,2664.741391
2250.588336,19097.313304,-74158.044206,-2072.576638
2250.590875,296.082377,-75230.577904,2960.823768
2250.593414,-3404.947333,-73391.948708,-888.247130
2250.595953,-3701.029710,-70940.443115,592.164754
2250.598493,3404.947333,-72932.291410,296.082377
2250.601032,-7846.182985,-74311.263306,-3552.988522
2250.603571,6217.729913,-75077.358804,-1184.329507
2250.606110,6513.812290,-75230.577904,-4293.194464
2250.608649,-17616.901420,-72932.291410,6957.935855
2250.611188,52554.621882,-71859.757712,-2072.576638
2250.613728,1924.535449,-74004.825107,7698.141797
2250.616267,29756.278868,-74158.044206,1480.411884
2250.618813,18801.230927,-74617.701505,296.082377
2250.621360,3552.988522,-74617.701505,3997.112087
2250.623906,7402.059420,-73391.948708,-740.205942
2250.626452,7254.018232,-74004.825107,4293.194464
2250.628998,11251.130318,-72319.415011,-1332.370696
2250.631545,-16876.695478,-74770.920605,5477.523971
2250.634091,-19985.560434,-76303.111601,1480.411884
2250.636637,-1628.453072,-74004.825107,5921.647536
2250.639184,-16876.695478,-73698.386908,-888.247130
2250.641730,9030.512492,-73545.167808,3997.112087
2250.644276,-6217.729913,-74464.482406,-444.123565
2250.646823,-24870.919651,-73851.606007,2516.700203
2250.649369,-36418.132346,-74004.825107,740.205942
2250.651915,-21910.095883,-73545.167808,1332.370696
2250.654462,25167.002028,-74770.920605,444.123565
2250.657008,-34049.473332,-75230.577904,2072.576638
2250.659554,2960.823768,-71400.100414,296.082377
2250.662101,18061.024985,-74004.825107,888.247130
2250.664647,-43228.027013,-72472.634111,6365.771101
2250.667193,17764.942608,-72779.072310,592.164754
2250.669740,-29164.114115,-75230.577904,5477.523971
2250.672286,6217.729913,-73851.606007,7402.059420
2250.674832,-6069.688724,-75537.016103,-4293.194464
2250.677379,-8586.388927,-74158.044206,9918.759623
2250.679925,740.205942,-76149.892501,-148.041188
2250.682471,14359.995275,-73085.510509,740.205942
2250.685017,26647.413912,-74770.920605,1036.288319
2250.687564,13027.624579,-74311.263306,-4441.235652
2250.690110,2368.659014,-74617.701505,3552.988522
2250.692656,2072.576638,-75383.797003,1628.453072
2250.695203,9474.636058,-71400.100414,148.041188
2250.697749,-296.082377,-74158.044206,4293.194464
2250.700301,-1036.288319,-74464.482406,-5033.400406
2250.702853,44560.397708,-74464.482406,-4441.235652
2250.705405,7698.141797,-74311.263306,740.205942
2250.707957,-30496.484810,-73851.606007,11843.295072
2250.710509,23982.672521,-73851.606007,888.247130
2250.713061,18801.230927,-72319.415011,3108.864956
2250.715613,-3552.988522,-72779.072310,-5921.647536
2250.718165,23834.631332,-74617.701505,-2812.782580
2250.720717,-9622.677246,-75996.673402,5773.606348
2250.723269,9178.553681,-74770.920605,-5921.647536
2250.725821,740.205942,-74924.139704,13027.624579
2250.728373,-3404.947333,-73545.167808,4589.276840
2250.730925,-17764.942608,-74924.139704,296.082377
2250.733477,-15544.324782,-77682.083497,6957.935855
2250.736029,-6217.729913,-72932.291410,1628.453072
2250.738581,-14211.954086,-74770.920605,1628.453072
2250.741133,6217.729913,-73238.729609,2664.741391
2250.743685,-15396.283594,-76456.330700,3108.864956
2250.746237,-17468.860231,-72625.853210,1628.453072
2250.748789,-37750.503042,-73851.606007,11251.130318
2250.751341,-18949.272115,-72166.195912,-8290.306550
2250.753893,740.205942,-74924.139704,3108.864956
2250.756445,-17024.736666,-75077.358804,4589.276840
2250.758997,27535.661042,-73851.606007,592.164754
2250.761549,-26647.413912,-75383.797003,17468.860231
2250.764101,18505.148550,-71859.757712,-8438.347739
2250.766653,-4441.235652,-72779.072310,3701.029710
2250.769205,-10066.800811,-74770.920605,5181.441594
2250.771757,4441.235652,-72779.072310,296.082377
2250.774309,-10214.842000,-74617.701505,4737.318029
2250.776861,-8882.471304,-72779.072310,-2220.617826
2250.779413,11103.089130,-74617.701505,4885.359217
2250.781965,21317.931130,-73851.606007,-1332.370696
2250.784517,19245.354492,-74004.825107,740.205942
2250.787069,5625.565159,-75230.577904,-888.247130
2250.789621,1628.453072,-73391.948708,-592.164754
2250.792173,6661.853478,-74464.482406,2960.823768
2250.794725,15692.365970,-73545.167808,3849.070898
2250.797277,26055.249158,-72625.853210,1628.453072
2250.799829,-31828.855506,-76303.111601,1184.329507
2250.802386,52554.621882,-73545.167808,-9622.677246
2250.804943,-9622.677246,-75230.577904,8882.471304
2250.807500,-33457.308578,-75077.358804,7254.018232
2250.810057,57884.104664,-72012.976812,-6365.771101
2250.812615,-37306.379477,-76456.330700,11399.171507
2250.815172,52110.498317,-73851.606007,-15248.242405
2250.817729,-13323.706956,-75230.577904,10362.883188
2250.820286,7846.182985,-72472.634111,-4589.276840
2250.822843,38934.832549,-73545.167808,-1480.411884
2250.825400,-15100.201217,-75230.577904,10362.883188
2250.827957,-444.123565,-72166.195912,-4293.194464
2250.830515,-33309.267390,-76915.987999,6661.853478
2250.833072,-740.205942,-74311.263306,2664.741391
2250.835629,-12435.459826,-74770.920605,2960.823768
2250.838186,-1480.411884,-73851.606007,2960.823768
2250.840743,-6957.935855,-75537.016103,2368.659014
2250.843300,-10955.047942,-72319.415011,1036.288319
2250.845857,-21614.013506,-74004.825107,1480.411884
2250.848415,-21910.095883,-73698.386908,8438.347739
2250.850972,-11695.253884,-74004.825107,-1776.494261
2250.853529,19245.354492,-73698.386908,-3108.864956
2250.856086,-14952.160028,-74158.044206,3256.906145
2250.858643,-34937.720462,-75537.016103,4293.194464
2250.861200,-28571.949361,-75690.235202,6957.935855
2250.863758,-14804.118840,-73851.606007,3849.070898
2250.866315,-6809.894666,-74464.482406,-444.123565
2250.868872,296.082377,-74004.825107,4885.359217
2250.871429,-10807.006753,-75230.577904,-3849.070898
2250.873986,-16580.613101,-72012.976812,2812.782580
2250.876543,4145.153275,-73851.606007,3404.947333
2250.879100,26055.249158,-75383.797003,-1480.411884
2250.881658,26795.455100,-73698.386908,5181.441594
2250.884215,1332.370696,-76303.111601,-3552.988522
2250.886772,9474.636058,-74464.482406,1184.329507
2250.889329,-6809.894666,-73545.167808,4737.318029
2250.891886,-5773.606348,-70327.566716,-2220.617826
2250.894443,-10955.047942,-74770.920605,3701.029710
2250.897000,38194.626607,-74158.044206,-5477.523971
2250.899558,1924.535449,-75537.016103,1480.411884
2250.902115,10066.800811,-74004.825107,2812.782580
2250.904643,-10214.842000,-75230.577904,5033.400406
2250.907171,-8882.471304,-75843.454302,7550.100608
2250.909699,32272.979071,-72779.072310,-4589.276840
2250.912227,20133.601622,-75077.358804,2368.659014
2250.914756,9030.512492,-74464.482406,-5477.523971
2250.917284,-6513.812290,-75077.358804,1332.370696
2250.919812,9326.594869,-74617.701505,592.164754
2250.922340,4885.359217,-72625.853210,-148.041188
2250.924868,-10066.800811,-74158.044206,5625.565159
2250.927396,-25315.043216,-75383.797003,-888.247130
2250.929925,-6217.729913,-75843.454302,2516.700203
2250.932453,-18061.024985,-74464.482406,5033.400406
2250.934981,3849.070898,-73391.948708,3108.864956
2250.937509,5625.565159,-73085.510509,1480.411884
2250.940037,4589.276840,-72779.072310,2960.823768
2250.942565,592.164754,-72779.072310,4145.153275
2250.945094,-45152.562462,-72779.072310,5773.606348
2250.947622,4441.235652,-76303.111601,-1628.453072
2250.950150,-21169.889941,-74924.139704,2072.576638
2250.952678,-6661.853478,-71859.757712,-2812.782580
2250.955206,29904.320057,-74311.263306,-3701.029710
2250.957735,-41155.450375,-75230.577904,13619.789333
2250.960263,9918.759623,-74158.044206,-2072.576638
2250.962791,-6513.812290,-74311.263306,6069.688724
2250.965319,888.247130,-73085.510509,-2960.823768
2250.967847,296.082377,-74770.920605,1036.288319
2250.970375,-16728.654289,-74770.920605,4737.318029
2250.972904,22650.301825,-71859.757712,-5773.606348
2250.975432,10510.924376,-74158.044206,4145.153275
2250.977960,30792.567187,-72625.853210,-4737.318029
2250.980488,1480.411884,-74770.920605,-444.123565
2250.983016,18949.272115,-74311.263306,-3108.864956
2250.985544,-20577.725188,-74464.482406,4293.194464
2250.988073,-5477.523971,-73851.606007,-0.000000
2250.990601,-148.041188,-73698.386908,1036.288319
2250.993129,34937.720462,-74158.044206,-3701.029710
2250.995657,-5329.482782,-74924.139704,-740.205942
2250.998185,-42339.779882,-75383.797003,7698.141797
2251.000713,38638.750172,-72932.291410,-6513.812290
2251.003242,-41155.450375,-75077.358804,10066.800811
2251.005780,32124.937883,-73238.729609,-4885.359217
2251.008318,10066.800811,-73545.167808,1924.535449
2251.010856,-5033.400406,-75537.016103,6069.688724
2251.013394,5477.523971,-74464.482406,-6957.935855
2251.015932,-2812.782580,-74770.920605,7254.018232
2251.018470,148.041188,-73085.510509,1776.494261
2251.021008,-17320.819043,-73545.167808,2516.700203
2251.023546,-21762.054695,-75996.673402,4737.318029
2251.026084,592.164754,-73391.948708,740.205942
2251.028622,-11843.295072,-74311.263306,3552.988522
2251.031160,-7550.100608,-73698.386908,3108.864956
2251.033698,-10362.883188,-75843.454302,-0.000000
2251.036236,-10066.800811,-74464.482406,7254.018232
2251.038774,10214.842000,-73085.510509,-1332.370696
2251.041312,-38638.750172,-76303.111601,12287.418637
2251.043850,-22798.343014,-75383.797003,-0.000000
2251.046388,17320.819043,-73851.606007,-7550.100608
2251.048926,-18209.066173,-73545.167808,8438.347739
2251.051464,-11399.171507,-74004.825107,-1776.494261
2251.054002,15692.365970,-73085.510509,6661.853478
2251.056540,-34197.514520,-76915.987999,7994.224174
2251.059078,14359.995275,-73238.729609,-2812.782580
2251.061616,-10066.800811,-74770.920605,6069.688724
2251.064155,-4589.276840,-72472.634111,-4885.359217
2251.066693,19689.478057,-72625.853210,-740.205942
2251.069231,14211.954086,-74770.920605,4441.235652
2251.071769,25611.125593,-73545.167808,-5033.400406
2251.074307,13175.665768,-74464.482406,3108.864956
2251.076845,6069.688724,-74158.044206,-296.082377
2251.079383,-8734.430116,-72779.072310,-148.041188
2251.081921,-13915.871710,-73851.606007,4885.359217
2251.084459,5181.441594,-72932.291410,-5329.482782
2251.086997,-24722.878463,-75230.577904,1332.370696
2251.089535,11991.336260,-75843.454302,-2812.782580
2251.092073,-23538.548956,-75230.577904,-592.164754
2251.094611,19689.478057,-72319.415011,-2220.617826
2251.097149,25167.002028,-74158.044206,5181.441594
2251.099687,14211.954086,-72319.415011,1628.453072
2251.102225,32865.143825,-74004.825107,1332.370696
2251.104763,296.082377,-75690.235202,3701.029710
2251.107309,3997.112087,-74311.263306,-3701.029710
2251.109855,12731.542202,-74770.920605,5033.400406
2251.112401,148.041188,-73545.167808,888.247130
2251.114948,-20281.642811,-74004.825107,5625.565159
2251.117494,-15840.407159,-75230.577904,592.164754
2251.120040,-9178.553681,-74004.825107,3256.906145
2251.122586,-8734.430116,-75077.358804,3256.906145
2251.125132,-7698.141797,-75383.797003,3552.988522
2251.127678,6809.894666,-74924.139704,2072.576638
2251.130224,-2664.741391,-73545.167808,4737.318029
2251.132770,-31088.649564,-73391.948708,4145.153275
2251.135316,24426.796086,-72932.291410,-444.123565
2251.137863,-20429.683999,-75537.016103,9326.594869
2251.140409,-46040.809592,-73085.510509,-3108.864956
2251.142955,74612.758954,-72319.415011,2072.576638
2251.145501,-59956.681302,-77835.302597,11251.130318
2251.148047,18505.148550,-71246.881314,-5625.565159
2251.150593,1332.370696,-76609.549800,4441.235652
2251.153139,-38934.832549,-72932.291410,5033.400406
2251.155685,43820.191766,-73851.606007,-5921.647536
2251.158231,-47965.345042,-74617.701505,13175.665768
2251.160777,38490.708984,-72166.195912,-12583.501014
2251.163324,1184.329507,-75230.577904,5625.565159
2251.165870,29608.237680,-73391.948708,-1776.494261
2251.168416,11695.253884,-74464.482406,-1924.535449
2251.170962,6365.771101,-75230.577904,5625.565159
2251.173508,11695.253884,-74311.263306,-3552.988522
2251.176054,15396.283594,-73085.510509,5921.647536
2251.178600,-3256.906145,-73545.167808,2220.617826
2251.181146,29016.072926,-74770.920605,888.247130
2251.183692,11547.212695,-75537.016103,1036.288319
2251.186239,-14211.954086,-74924.139704,3552.988522
2251.188785,10955.047942,-72932.291410,-148.041188
2251.191331,32865.143825,-72012.976812,-0.000000
2251.193877,-2812.782580,-74924.139704,3552.988522
2251.196423,21169.889941,-73391.948708,-5033.400406
2251.198969,7254.018232,-75996.673402,2220.617826
2251.201515,-5033.400406,-74158.044206,-296.082377
2251.204061,17320.819043,-72779.072310,2960.823768
2251.206607,-2220.617826,-73851.606007,740.205942
2251.209161,-11695.253884,-74311.263306,2960.823768
2251.211714,-26055.249158,-75230.577904,3256.906145
2251.214267,-7698.141797,-73851.606007,-444.123565
2251.216820,-14508.036463,-76303.111601,7402.059420
2251.219373,2072.576638,-74770.920605,1776.494261
2251.221926,6809.894666,-74004.825107,2368.659014
2251.224479,-4293.194464,-75077.358804,5181.441594
2251.227032,-18505.148550,-72319.415011,2960.823768
2251.229586,592.164754,-75077.358804,5181.441594
2251.232139,-13027.624579,-75230.577904,888.247130
2251.234692,4589.276840,-74617.701505,6069.688724
2251.237245,-16136.489536,-73545.167808,1924.535449
2251.239798,-31828.855506,-75537.016103,7994.224174
2251.242351,-32569.061448,-73391.948708,2812.782580
2251.244904,-7846.182985,-72932.291410,-888.247130
2251.247457,-2368.659014,-73851.606007,2664.741391
2251.250011,-3997.112087,-74770.920605,296.082377
2251.252564,-13471.748144,-74464.482406,6513.812290
2251.255117,2368.659014,-73545.167808,592.164754
2251.257670,17172.777854,-74924.139704,-1036.288319
2251.260223,24278.754898,-74311.263306,1480.411884
2251.262776,12731.542202,-73851.606007,-2960.823768
2251.265329,10214.842000,-75996.673402,2368.659014
2251.267882,-13619.789333,-73238.729609,2368.659014
2251.270436,-10510.924376,-73545.167808,444.123565
2251.272989,-14804.118840,-75537.016103,-296.082377
2251.275542,19393.395680,-72932.291410,-2072.576638
2251.278095,7402.059420,-75690.235202,296.082377
2251.280648,-12139.377449,-74924.139704,1332.370696
2251.283201,45596.686027,-72472.634111,740.205942
2251.285754,-592.164754,-73545.167808,7846.182985
2251.288308,29608.237680,-73545.167808,-3552.988522
2251.290861,-6365.771101,-74924.139704,444.123565
2251.293414,11547.212695,-75383.797003,2516.700203
2251.295967,6217.729913,-74617.701505,296.082377
2251.298520,7402.059420,-72166.195912,-888.247130
2251.301073,-740.205942,-73391.948708,3108.864956
2251.303626,-26647.413912,-74464.482406,5477.523971
2251.306179,-3997.112087,-75230.577904,1924.535449
2251.308733,-23982.672521,-74770.920605,4441.235652
2251.311292,-1332.370696,-74158.044206,-148.041188
2251.313851,-10807.006753,-75537.016103,3108.864956
2251.316410,-28868.031738,-76456.330700,3701.029710
2251.318969,-12435.459826,-73085.510509,3404.947333
2251.321528,-23686.590144,-74004.825107,6217.729913
2251.324087,25907.207970,-73698.386908,592.164754
2251.326646,-33457.308578,-76609.549800,4885.359217
2251.329205,23834.631332,-72166.195912,444.123565
2251.331764,3552.988522,-74617.701505,-2664.741391
2251.334323,-43376.068201,-74158.044206,5625.565159
2251.336882,12731.542202,-72472.634111,444.123565
2251.339441,-14508.036463,-74311.263306,5329.482782
2251.342000,7846.182985,-73085.510509,-0.000000
2251.344560,-12287.418637,-75077.358804,1776.494261
2251.347119,6069.688724,-73238.729609,2812.782580
2251.349678,-592.164754,-74617.701505,148.041188
2251.352237,20577.725188,-73391.948708,148.041188
2251.354796,17320.819043,-73851.606007,2516.700203
2251.357355,-1628.453072,-75077.358804,-1480.411884
2251.359914,16284.530724,-73238.729609,-1332.370696
2251.362473,-28571.949361,-75690.235202,7105.977043
2251.365032,5477.523971,-72472.634111,-4293.194464
2251.367591,-14211.954086,-74464.482406,4589.276840
2251.370150,-12139.377449,-76303.111601,2516.700203
2251.372709,45448.644839,-75230.577904,-6365.771101
2251.375268,-13619.789333,-76609.549800,9178.553681
2251.377828,-3552.988522,-75077.358804,-0.000000
2251.380387,47373.180288,-73085.510509,1184.329507
2251.382946,7550.100608,-74464.482406,2072.576638
2251.385505,33901.432144,-74311.263306,-4737.318029
2251.388064,-8142.265362,-76303.111601,3997.112087
2251.390623,5773.606348,-73545.167808,-592.164754
2251.393182,-444.123565,-73698.386908,-296.082377
2251.395741,-27239.578666,-74617.701505,6957.935855
2251.398300,-2960.823768,-74770.920605,-148.041188
2251.400859,-16580.613101,-73851.606007,6661.853478
2251.403418,-740.205942,-74464.482406,-0.000000
2251.405977,-444.123565,-75537.016103,3552.988522
2251.408536,-296.082377,-74158.044206,1480.411884
2251.411095,7254.018232,-73085.510509,4885.359217
2251.413658,6809.894666,-73391.948708,2960.823768
2251.416220,-17024.736666,-75383.797003,6513.812290
2251.418783,-15544.324782,-74924.139704,1480.411884
2251.421346,6217.729913,-72779.072310,-296.082377
2251.423909,-1924.535449,-74311.263306,-2368.659014
2251.426472,-29608.237680,-75077.358804,3256.906145
2251.429035,-11843.295072,-74770.920605,3701.029710
2251.431598,-5921.647536,-74311.263306,1628.453072
2251.434161,-2368.659014,-73238.729609,444.123565
2251.436724,592.164754,-75537.016103,296.082377
2251.439287,-18209.066173,-74464.482406,2664.741391
2251.441850,25018.960840,-74158.044206,-1480.411884
2251.444413,13471.748144,-74464.482406,-592.164754
2251.446976,17172.777854,-73545.167808,2664.741391
2251.449539,9178.553681,-75077.358804,-2664.741391
2251.452102,11547.212695,-73851.606007,-1480.411884
2251.454665,18357.107362,-72932.291410,1924.535449
2251.457228,-6513.812290,-73391.948708,3108.864956
2251.459791,1036.288319,-73545.167808,-592.164754
2251.462354,43376.068201,-73851.606007,-4589.276840
2251.464917,-37010.297100,-74770.920605,-0.000000
2251.467480,40711.326810,-72779.072310,-3256.906145
2251.470043,6809.894666,-74158.044206,9326.594869
2251.472606,21762.054695,-73545.167808,888.247130
2251.475169,37306.379477,-72779.072310,4589.276840
2251.477732,-4885.359217,-75996.673402,5033.400406
2251.480295,20725.766376,-74158.044206,-7846.182985
2251.482858,-2072.576638,-74924.139704,7105.977043
2251.485421,2812.782580,-74158.044206,-740.205942
2251.487983,-25315.043216,-74464.482406,6513.812290
2251.490546,-8142.265362,-75383.797003,2812.782580
