#time,accel_x,accel_y,accel_z
3593.474070,-382.851616,1454.836141,-9265.009107
3593.476516,-995.414202,-727.418070,-9571.290400
3593.478961,-1320.838075,-306.281293,-9207.581365
3593.481407,-401.994197,-287.138712,-9322.436850
3593.483852,-765.703232,4345.365842,-9590.432981
3593.486298,-4039.084549,-3483.949706,-9533.005238
3593.488743,1014.556782,1780.260014,-9092.725880
3593.491189,-1378.265818,-2086.541307,-9284.151688
3593.493634,-1856.830338,-1033.699363,-9073.583299
3593.496080,-1244.267752,267.996131,-9265.009107
3593.498525,-1110.269686,-4498.506488,-9915.856854
3593.500971,-1416.550979,1607.976787,-9054.440718
3593.503416,-1205.982590,-1129.412267,-9533.005238
3593.505909,-516.849682,937.986459,-9647.860723
3593.508401,-1933.400661,-650.847747,-9322.436850
3593.510894,287.138712,-57.427742,-8958.727814
3593.513386,-631.705166,727.418070,-9073.583299
3593.515879,-823.130974,708.275490,-8958.727814
3593.518371,-880.558717,3962.514226,-8939.585234
3593.520864,-555.134843,-1129.412267,-9513.862658
3593.523356,-1454.836141,995.414202,-9169.296203
3593.525849,-555.134843,-861.416136,-9513.862658
3593.528341,-325.423874,918.843878,-9360.722011
3593.530834,-899.701298,76.570323,-8939.585234
3593.533326,172.283227,2890.529701,-8690.731683
3593.535819,-1148.554848,-784.845813,-9188.438784
3593.538312,-746.560651,-995.414202,-9245.866526
3593.540804,-1569.691626,-1225.125171,-9399.007173
3593.543297,1799.402595,2258.824534,-9303.294269
3593.545789,-2220.539373,-114.855485,-9150.153622
3593.548282,-1378.265818,-1320.838075,-8633.303941
3593.550774,248.853550,-172.283227,-8901.300072
3593.553267,535.992262,-1225.125171,-8786.444587
3593.555759,-57.427742,5111.069074,-8422.735552
3593.558252,-937.986459,593.420005,-9035.298138
3593.560744,-497.707101,669.990328,-8977.870395
3593.563237,-1225.125171,-746.560651,-9188.438784
3593.565729,57.427742,2239.681954,-9341.579430
3593.568222,-1052.841944,631.705166,-9073.583299
3593.570714,-459.421939,1473.978722,-8614.161360
3593.573207,19.142581,937.986459,-8767.302006
3593.575699,-1052.841944,-1684.547110,-8786.444587
3593.578192,19.142581,2067.398726,-8748.159426
3593.580685,-57.427742,1780.260014,-9054.440718
3593.583177,-631.705166,823.130974,-8786.444587
3593.585670,-746.560651,823.130974,-8690.731683
3593.588162,210.568389,880.558717,-9207.581365
3593.590655,-555.134843,-267.996131,-9054.440718
3593.593147,-1684.547110,-2239.681954,-8480.163294
3593.595640,555.134843,1225.125171,-8901.300072
3593.598132,-803.988394,-1550.549045,-9016.155557
3593.600625,-727.418070,3388.236802,-8480.163294
3593.603117,-995.414202,-1378.265818,-8805.587168
3593.605640,-593.420005,-2852.244539,-9418.149754
3593.608164,-1512.263883,-861.416136,-9245.866526
3593.610687,133.998066,38.285162,-9131.011042
3593.613210,-1263.410333,478.564520,-8882.157491
3593.615733,-401.994197,899.701298,-8537.591037
3593.618256,248.853550,-1225.125171,-8997.012976
3593.620779,-842.273555,-3407.379382,-8939.585234
3593.623302,-708.275490,210.568389,-8614.161360
3593.625825,-803.988394,191.425808,-9284.151688
3593.628349,-631.705166,784.845813,-9456.434915
3593.630872,-2201.396792,76.570323,-9111.868461
3593.633395,-95.712904,-1378.265818,-9245.866526
3593.635918,-267.996131,-2009.970984,-8958.727814
3593.638441,-478.564520,4843.072942,-8767.302006
3593.640964,-1933.400661,-2354.537438,-9188.438784
3593.643487,-382.851616,-2201.396792,-8709.874264
3593.646010,-823.130974,880.558717,-9207.581365
3593.648534,-669.990328,-5225.924558,-9399.007173
3593.651057,1512.263883,1071.984525,-9226.723946
3593.653580,-1320.838075,-382.851616,-9111.868461
3593.656103,-1167.697429,-957.129040,-9016.155557
3593.658626,-478.564520,2163.111630,-9054.440718
3593.661149,-957.129040,-1837.687757,-8824.729749
3593.663672,-57.427742,1148.554848,-9226.723946
3593.666196,-1186.840010,-2909.672282,-9533.005238
3593.668719,-1225.125171,765.703232,-9054.440718
3593.671242,-1091.127106,-1167.697429,-9494.720077
3593.673765,-248.853550,-287.138712,-9494.720077
3593.676288,-1971.685822,-1493.121302,-9188.438784
3593.678811,57.427742,727.418070,-9379.864592
3593.681334,-1263.410333,-2450.250342,-9131.011042
3593.683857,-1397.408398,-957.129040,-9035.298138
3593.686381,-1205.982590,-1225.125171,-9284.151688
3593.688904,-229.710970,-1320.838075,-9494.720077
3593.691427,-1320.838075,3120.240670,-9284.151688
3593.693950,-612.562586,4326.223261,-9226.723946
3593.696473,-1397.408398,-4268.795518,-9360.722011
3593.698996,-612.562586,-325.423874,-9341.579430
3593.701519,-1110.269686,1148.554848,-8997.012976
3593.704042,823.130974,3464.807125,-8920.442653
3593.706583,-1512.263883,2603.390989,-8748.159426
3593.709125,-899.701298,1320.838075,-9265.009107
3593.711666,-210.568389,-1895.115499,-9456.434915
3593.714207,-1186.840010,-1397.408398,-9303.294269
3593.716748,-631.705166,2009.970984,-9379.864592
3593.719289,-689.132909,1148.554848,-9418.149754
3593.721830,-497.707101,1110.269686,-8633.303941
3593.724371,-1014.556782,0.000000,-8805.587168
3593.726912,746.560651,842.273555,-9265.009107
3593.729453,-1320.838075,-2928.814862,-9226.723946
3593.731994,0.000000,976.271621,-9131.011042
3593.734535,57.427742,-1531.406464,-8824.729749
3593.737076,-382.851616,6470.192310,-9111.868461
3593.739617,-1416.550979,76.570323,-8671.589102
3593.742158,133.998066,-1339.980656,-9016.155557
3593.744699,1282.552914,3388.236802,-8977.870395
3593.747240,-2833.101958,3598.805190,-8729.016845
3593.749781,382.851616,306.281293,-8843.872330
3593.752322,-1933.400661,1205.982590,-8977.870395
3593.754863,-401.994197,-669.990328,-9188.438784
3593.757404,-612.562586,1397.408398,-9207.581365
3593.759945,-2143.969050,-2699.103893,-9418.149754
3593.762487,-172.283227,2833.101958,-8365.307810
3593.765028,-574.277424,-133.998066,-8863.014910
3593.767569,-248.853550,-325.423874,-8997.012976
3593.770110,-669.990328,2182.254211,-8709.874264
3593.772651,803.988394,823.130974,-9111.868461
3593.775192,-1244.267752,1493.121302,-8805.587168
3593.777733,-1646.261949,-708.275490,-8786.444587
3593.780274,363.709035,1722.832272,-9169.296203
3593.782815,-708.275490,-1225.125171,-9284.151688
3593.785356,-1091.127106,-880.558717,-8595.018779
3593.787897,421.136778,0.000000,-8920.442653
3593.790438,-172.283227,191.425808,-8805.587168
3593.792979,-1359.123237,1971.685822,-8403.592971
3593.795520,-440.279358,-1914.258080,-8767.302006
3593.798061,-957.129040,-3464.807125,-9571.290400
3593.800602,-784.845813,57.427742,-9399.007173
3593.803143,-57.427742,38.285162,-9150.153622
3593.805684,-1588.834206,382.851616,-8633.303941
3593.808238,-555.134843,631.705166,-8595.018779
3593.810792,172.283227,-1454.836141,-9188.438784
3593.813346,-746.560651,-3215.953574,-9035.298138
3593.815900,-1665.404530,-95.712904,-8977.870395
3593.818453,-937.986459,1646.261949,-9245.866526
3593.821007,-1033.699363,172.283227,-9341.579430
3593.823561,-1722.832272,-2488.535504,-9131.011042
3593.826115,-344.566454,-1952.543242,-9265.009107
3593.828669,-1148.554848,-5819.344563,-9303.294269
3593.831223,1071.984525,1837.687757,-8652.446522
3593.833777,-631.705166,2737.389054,-8920.442653
3593.836330,-1569.691626,-1914.258080,-9475.577496
3593.838884,-2048.256146,-3101.098090,-9322.436850
3593.841438,1359.123237,-2565.105827,-9265.009107
3593.843992,-765.703232,-57.427742,-9418.149754
3593.846546,-2029.113565,612.562586,-9226.723946
3593.849100,344.566454,937.986459,-9092.725880
3593.851654,-1091.127106,-3637.090352,-9226.723946
3593.854208,-784.845813,-1359.123237,-9092.725880
3593.856761,-1588.834206,497.707101,-9418.149754
3593.859315,-650.847747,-1588.834206,-9513.862658
3593.861869,-1473.978722,918.843878,-9150.153622
3593.864423,-669.990328,-1741.974853,-9379.864592
3593.866977,-516.849682,-823.130974,-9322.436850
3593.869531,-1071.984525,-153.140646,-9054.440718
3593.872085,-689.132909,-574.277424,-9303.294269
3593.874639,-57.427742,-2277.967115,-9092.725880
3593.877192,-2048.256146,-1895.115499,-9016.155557
3593.879746,-172.283227,2603.390989,-9322.436850
3593.882300,-229.710970,3158.525832,-9360.722011
3593.884854,-1550.549045,478.564520,-9092.725880
3593.887408,-1205.982590,-1684.547110,-9513.862658
3593.889962,-153.140646,-1761.117434,-9724.431046
3593.892516,-1378.265818,1320.838075,-9303.294269
3593.895069,-306.281293,3598.805190,-8537.591037
3593.897623,344.566454,2163.111630,-8786.444587
3593.900177,-1244.267752,-421.136778,-9131.011042
3593.902731,-478.564520,-1435.693560,-9322.436850
3593.905285,-459.421939,-153.140646,-9418.149754
3593.907839,-1071.984525,1205.982590,-9226.723946
3593.910324,-842.273555,2679.961312,-9035.298138
3593.912809,172.283227,727.418070,-8843.872330
3593.915295,-669.990328,-478.564520,-8977.870395
3593.917780,-267.996131,-401.994197,-8977.870395
3593.920265,57.427742,-2833.101958,-9188.438784
3593.922750,325.423874,440.279358,-8518.448456
3593.925236,-574.277424,8307.880067,-8901.300072
3593.927721,-1799.402595,-4268.795518,-9628.718142
3593.930206,-114.855485,2258.824534,-9131.011042
3593.932692,76.570323,-2603.390989,-8767.302006
3593.935177,2182.254211,3943.371645,-8671.589102
3593.937662,-2737.389054,-1416.550979,-9035.298138
3593.940147,535.992262,2239.681954,-8556.733618
3593.942633,-133.998066,1952.543242,-8882.157491
3593.945118,-229.710970,-1091.127106,-9111.868461
3593.947603,-880.558717,2660.818731,-9111.868461
3593.950088,-708.275490,-2182.254211,-9169.296203
3593.952574,76.570323,1359.123237,-8633.303941
3593.955059,-1091.127106,574.277424,-8499.305875
3593.957544,899.701298,1205.982590,-8748.159426
3593.960030,-1110.269686,153.140646,-9150.153622
3593.962515,57.427742,1397.408398,-8920.442653
3593.965000,-401.994197,2220.539373,-8977.870395
3593.967485,-976.271621,-1052.841944,-8824.729749
3593.969971,-1378.265818,-689.132909,-8633.303941
3593.972456,210.568389,-267.996131,-9265.009107
3593.974941,229.710970,-248.853550,-9207.581365
3593.977426,-2048.256146,1416.550979,-8633.303941
3593.979912,-248.853550,-784.845813,-8729.016845
3593.982397,-1493.121302,-3407.379382,-8863.014910
3593.984882,133.998066,-880.558717,-8863.014910
3593.987368,-248.853550,459.421939,-9150.153622
3593.989853,-1320.838075,-114.855485,-9035.298138
3593.992338,-612.562586,784.845813,-8786.444587
3593.994823,-631.705166,-1856.830338,-9399.007173
3593.997309,-976.271621,-3215.953574,-9169.296203
3593.999794,-976.271621,-612.562586,-8748.159426
3594.002279,995.414202,-401.994197,-8920.442653
3594.004764,-1665.404530,-803.988394,-8671.589102
3594.007250,-765.703232,957.129040,-9111.868461
3594.009762,-1397.408398,631.705166,-9360.722011
3594.012274,-1569.691626,1129.412267,-9686.145885
3594.014786,-2277.967115,-4441.078746,-9284.151688
3594.017298,727.418070,2297.109696,-8939.585234
3594.019810,-1339.980656,-861.416136,-9092.725880
3594.022322,-1646.261949,976.271621,-8786.444587
3594.024834,-631.705166,-5723.631659,-9092.725880
3594.027346,689.132909,-2947.957443,-9303.294269
3594.029858,-1952.543242,1110.269686,-9188.438784
3594.032370,-1378.265818,-612.562586,-9284.151688
3594.034883,-823.130974,-2067.398726,-9245.866526
3594.037395,-1091.127106,-1837.687757,-9111.868461
3594.039907,-210.568389,995.414202,-9226.723946
3594.042419,-976.271621,-2794.816797,-9341.579430
3594.044931,-803.988394,708.275490,-9054.440718
3594.047443,-1550.549045,229.710970,-9341.579430
3594.049955,-95.712904,-976.271621,-9418.149754
3594.052467,-2354.537438,-1359.123237,-9169.296203
3594.054979,267.996131,-689.132909,-9552.147819
3594.057491,-1990.828403,-2431.107762,-9494.720077
3594.060003,-172.283227,1875.972918,-9016.155557
3594.062515,-612.562586,3732.803256,-9035.298138
3594.065027,-344.566454,-746.560651,-9131.011042
3594.067539,-1110.269686,-2335.394858,-9360.722011
3594.070052,-899.701298,133.998066,-9475.577496
3594.072564,-153.140646,1684.547110,-9284.151688
3594.075076,-1952.543242,3445.664544,-8939.585234
3594.077588,95.712904,1703.689691,-9360.722011
3594.080100,-708.275490,-440.279358,-9533.005238
3594.082612,-995.414202,-2201.396792,-9475.577496
3594.085124,-57.427742,2009.970984,-8729.016845
3594.087636,-191.425808,1952.543242,-8901.300072
3594.090148,-1531.406464,1473.978722,-8748.159426
3594.092660,-976.271621,1052.841944,-9284.151688
3594.095172,-344.566454,631.705166,-9590.432981
3594.097684,-1282.552914,669.990328,-9494.720077
3594.100196,153.140646,4613.361973,-9418.149754
3594.102708,-1244.267752,5627.918755,-8709.874264
3594.105221,-1493.121302,-3828.516160,-8882.157491
3594.107733,306.281293,4211.367776,-8480.163294
3594.110265,-306.281293,3120.240670,-9284.151688
3594.112798,-3005.385186,899.701298,-9494.720077
3594.115330,-344.566454,1071.984525,-9245.866526
3594.117863,-440.279358,784.845813,-9207.581365
3594.120396,-2220.539373,-708.275490,-9092.725880
3594.122928,-210.568389,1416.550979,-8537.591037
3594.125461,-95.712904,-1397.408398,-9016.155557
3594.127993,-440.279358,1569.691626,-8901.300072
3594.130526,-535.992262,1263.410333,-8729.016845
3594.133058,-248.853550,1646.261949,-9092.725880
3594.135591,-1359.123237,-76.570323,-8939.585234
3594.138124,-287.138712,2297.109696,-9016.155557
3594.140656,-306.281293,497.707101,-9284.151688
3594.143189,-363.709035,344.566454,-9092.725880
3594.145721,-650.847747,1703.689691,-8307.880067
3594.148254,-1071.984525,-2201.396792,-8537.591037
3594.150786,-133.998066,612.562586,-8863.014910
3594.153319,76.570323,287.138712,-8958.727814
3594.155852,-248.853550,1205.982590,-8901.300072
3594.158384,-1512.263883,-2086.541307,-8767.302006
3594.160917,-1665.404530,-2201.396792,-8958.727814
3594.163449,133.998066,-1129.412267,-9322.436850
3594.165982,-516.849682,-1167.697429,-8824.729749
3594.168514,-803.988394,3062.812928,-8327.022648
3594.171047,133.998066,-784.845813,-8863.014910
3594.173580,-650.847747,-1741.974853,-9054.440718
3594.176112,-1301.695494,-1607.976787,-8958.727814
3594.178645,-114.855485,-459.421939,-9341.579430
3594.181177,-363.709035,-2335.394858,-9150.153622
3594.183710,-1856.830338,3139.383251,-8920.442653
3594.186243,-497.707101,267.996131,-9245.866526
3594.188775,-1033.699363,-57.427742,-9131.011042
3594.191322,-1780.260014,-4402.793584,-8939.585234
3594.193868,1588.834206,1512.263883,-8786.444587
3594.196415,-1818.545176,-727.418070,-8709.874264
3594.198961,-2737.389054,-3005.385186,-9379.864592
3594.201508,631.705166,-3120.240670,-9169.296203
3594.204054,-1225.125171,516.849682,-9456.434915
3594.206601,-746.560651,-1684.547110,-8958.727814
3594.209147,-669.990328,1110.269686,-9131.011042
3594.211694,-1129.412267,-3637.090352,-8977.870395
3594.214240,-593.420005,3196.810994,-8288.737486
3594.216787,-650.847747,-4096.512291,-9667.003304
3594.219334,287.138712,-516.849682,-9494.720077
3594.221880,-1952.543242,-689.132909,-9226.723946
3594.224427,-976.271621,-401.994197,-9150.153622
3594.226973,-1071.984525,-1225.125171,-9226.723946
3594.229520,-918.843878,-382.851616,-8977.870395
3594.232066,-765.703232,-2756.531635,-9418.149754
3594.234613,-440.279358,-2641.676150,-9265.009107
3594.237159,-1320.838075,3139.383251,-9073.583299
3594.239706,-1071.984525,3962.514226,-8997.012976
3594.242252,-574.277424,-2545.963246,-9207.581365
3594.244799,-1148.554848,-1148.554848,-9379.864592
3594.247346,-574.277424,-516.849682,-9839.286531
3594.249892,-669.990328,2718.246474,-9494.720077
3594.252439,-1684.547110,2431.107762,-8767.302006
3594.254985,-459.421939,1722.832272,-9016.155557
3594.257532,440.279358,-1531.406464,-9360.722011
3594.260078,-1875.972918,-1378.265818,-9475.577496
3594.262625,-344.566454,1914.258080,-9360.722011
3594.265171,-114.855485,1914.258080,-9207.581365
3594.267718,-1895.115499,1531.406464,-9035.298138
3594.270264,-1320.838075,2450.250342,-9590.432981
3594.272811,76.570323,-2431.107762,-9571.290400
3594.275357,-363.709035,-3771.088418,-8863.014910
3594.277904,1014.556782,7848.458128,-8614.161360
3594.280451,-1895.115499,-287.138712,-8901.300072
3594.282997,-918.843878,229.710970,-8997.012976
3594.285544,-1052.841944,803.988394,-9724.431046
3594.288090,-1091.127106,-6317.051664,-9762.716208
3594.290637,861.416136,6163.911018,-9303.294269
3594.293194,-1550.549045,-1761.117434,-9533.005238
3594.295752,-593.420005,-593.420005,-8843.872330
3594.298310,-1607.976787,-95.712904,-8863.014910
3594.300867,478.564520,191.425808,-8748.159426
3594.303425,401.994197,2852.244539,-9054.440718
3594.305983,-899.701298,-593.420005,-9016.155557
3594.308540,-421.136778,3349.951640,-8997.012976
3594.311098,-1205.982590,-803.988394,-9456.434915
3594.313656,-1493.121302,-593.420005,-8843.872330
3594.316213,-440.279358,2335.394858,-8633.303941
3594.318771,-133.998066,612.562586,-9111.868461
3594.321328,-880.558717,267.996131,-8767.302006
3594.323886,-1282.552914,-1856.830338,-8441.878133
3594.326444,899.701298,2526.820666,-9111.868461
3594.329001,-1665.404530,-1780.260014,-9092.725880
3594.331559,-363.709035,976.271621,-8997.012976
3594.334117,57.427742,-363.709035,-8977.870395
3594.336674,-1550.549045,-3866.801322,-9054.440718
3594.339232,-478.564520,1186.840010,-8652.446522
3594.341790,-191.425808,267.996131,-8633.303941
3594.344347,-1014.556782,574.277424,-8863.014910
3594.346905,-421.136778,-191.425808,-8882.157491
3594.349463,-210.568389,-1971.685822,-9035.298138
3594.352020,-1607.976787,-1569.691626,-8824.729749
3594.354578,-650.847747,-516.849682,-8690.731683
3594.357136,421.136778,2124.826469,-8997.012976
3594.359693,-1493.121302,-2450.250342,-8843.872330
3594.362251,459.421939,746.560651,-8288.737486
3594.364809,-1454.836141,-574.277424,-8709.874264
3594.367366,612.562586,689.132909,-8709.874264
3594.369924,-1397.408398,7121.040058,-8633.303941
3594.372482,114.855485,-7752.745224,-8748.159426
3594.375039,4039.084549,10336.993632,-8748.159426
3594.377597,-5034.498750,-8327.022648,-9341.579430
3594.380154,1339.980656,918.843878,-9437.292334
3594.382712,-2679.961312,-2431.107762,-9341.579430
3594.385270,401.994197,-574.277424,-8403.592971
3594.387827,-650.847747,1244.267752,-8997.012976
3594.390385,-153.140646,-2871.387120,-8882.157491
3594.392943,-497.707101,497.707101,-9169.296203
3594.395509,-1301.695494,-1301.695494,-9418.149754
3594.398075,153.140646,-229.710970,-9131.011042
3594.400641,-2239.681954,-1397.408398,-8786.444587
3594.403207,650.847747,-1493.121302,-9035.298138
3594.405773,-2163.111630,-3330.809059,-8997.012976
3594.408340,976.271621,2220.539373,-8767.302006
3594.410906,-382.851616,2947.957443,-8843.872330
3594.413472,-1052.841944,-861.416136,-9437.292334
3594.416038,-1818.545176,-1205.982590,-9226.723946
3594.418604,-612.562586,-1359.123237,-9609.575562
3594.421170,-248.853550,880.558717,-9418.149754
3594.423736,-1033.699363,2679.961312,-8805.587168
3594.426302,727.418070,3120.240670,-8977.870395
3594.428869,-1493.121302,-497.707101,-9111.868461
3594.431435,-421.136778,-2967.100024,-9360.722011
3594.434001,-612.562586,2507.678085,-9456.434915
3594.436567,-631.705166,-899.701298,-9647.860723
3594.439133,-1052.841944,2392.822600,-9265.009107
3594.441699,-995.414202,-133.998066,-9265.009107
3594.444265,-574.277424,-1110.269686,-9360.722011
3594.446831,-1263.410333,-2622.533570,-9245.866526
3594.449398,2163.111630,114.855485,-8901.300072
3594.451964,2239.681954,7810.172966,-9054.440718
3594.454530,-4575.076811,-2316.252277,-9207.581365
3594.457096,57.427742,-2297.109696,-8939.585234
3594.459662,2852.244539,7676.174901,-9379.864592
3594.462228,-3483.949706,-5723.631659,-9590.432981
3594.464794,516.849682,4728.217458,-9762.716208
3594.467360,-1818.545176,-421.136778,-9303.294269
3594.469927,-650.847747,3043.670347,-8805.587168
3594.472493,-1148.554848,2373.680019,-9188.438784
3594.475059,-421.136778,-4134.797453,-9743.573627
3594.477625,-1263.410333,3254.238736,-9494.720077
3594.480191,-842.273555,650.847747,-9379.864592
3594.482757,-210.568389,2603.390989,-9092.725880
3594.485323,-2009.970984,-1416.550979,-9169.296203
3594.487889,497.707101,2660.818731,-9590.432981
3594.490456,210.568389,267.996131,-9016.155557
3594.493022,-1780.260014,-2163.111630,-8958.727814
3594.495588,-344.566454,3273.381317,-8939.585234
3594.498159,-344.566454,-1550.549045,-9054.440718
3594.500730,-1741.974853,1741.974853,-8977.870395
3594.503302,-1454.836141,-3158.525832,-9418.149754
3594.505873,0.000000,-823.130974,-9475.577496
3594.508444,-1493.121302,-2411.965181,-8863.014910
3594.511015,-248.853550,995.414202,-8499.305875
3594.513587,-689.132909,2029.113565,-8671.589102
3594.516158,-1014.556782,-1722.832272,-8863.014910
3594.518729,-746.560651,-421.136778,-9131.011042
3594.521300,-382.851616,-2660.818731,-9475.577496
3594.523872,-1205.982590,-1569.691626,-9054.440718
3594.526443,-1665.404530,344.566454,-8480.163294
3594.529014,344.566454,957.129040,-8824.729749
3594.531586,-1856.830338,-4460.221326,-8920.442653
3594.534157,976.271621,-2067.398726,-8748.159426
3594.536728,133.998066,1741.974853,-9073.583299
3594.539299,-1971.685822,-2297.109696,-8997.012976
3594.541871,-669.990328,2450.250342,-8901.300072
3594.544442,-1033.699363,-6068.198114,-9418.149754
3594.547013,440.279358,-3024.527766,-8920.442653
3594.549584,-1722.832272,-669.990328,-8595.018779
3594.552156,555.134843,-1416.550979,-9035.298138
3594.554727,-842.273555,-2086.541307,-8729.016845
3594.557298,19.142581,38.285162,-8346.165229
3594.559869,-325.423874,191.425808,-8863.014910
3594.562441,-1014.556782,-1837.687757,-9131.011042
3594.565012,-478.564520,1473.978722,-9016.155557
3594.567583,-1263.410333,-2105.683888,-9169.296203
3594.570155,-440.279358,-1359.123237,-9073.583299
3594.572726,-1473.978722,-1933.400661,-8595.018779
3594.575297,612.562586,-267.996131,-8958.727814
3594.577868,-1301.695494,899.701298,-9035.298138
3594.580440,-172.283227,3751.945837,-8614.161360
3594.583011,153.140646,95.712904,-8824.729749
3594.585582,-76.570323,-1761.117434,-9341.579430
3594.588153,-1397.408398,-57.427742,-8901.300072
3594.590725,229.710970,3005.385186,-9303.294269
3594.593296,-631.705166,1071.984525,-9035.298138
3594.595867,-1186.840010,1952.543242,-8748.159426
3594.598438,708.275490,-210.568389,-8977.870395
3594.601014,-1167.697429,-2852.244539,-8863.014910
3594.603590,0.000000,2009.970984,-9169.296203
3594.606165,-363.709035,3809.373579,-9379.864592
3594.608741,-1014.556782,-38.285162,-9399.007173
3594.611317,-1301.695494,2852.244539,-9035.298138
3594.613892,-229.710970,2699.103893,-9265.009107
3594.616468,-1359.123237,267.996131,-9418.149754
3594.619043,-1646.261949,-1033.699363,-9073.583299
3594.621619,784.845813,2679.961312,-8614.161360
3594.624195,-765.703232,1914.258080,-9475.577496
3594.626770,-2833.101958,-5436.492947,-9475.577496
3594.629346,1818.545176,4689.932296,-9571.290400
3594.631922,-1914.258080,-1263.410333,-9667.003304
3594.634497,-248.853550,2526.820666,-9035.298138
3594.637073,-1320.838075,133.998066,-9111.868461
3594.639648,267.996131,153.140646,-9016.155557
3594.642224,-1205.982590,1263.410333,-8882.157491
3594.644800,-669.990328,631.705166,-9399.007173
3594.647375,76.570323,803.988394,-9379.864592
3594.649951,-1914.258080,555.134843,-8958.727814
3594.652527,325.423874,1914.258080,-9303.294269
3594.655102,-1531.406464,-1665.404530,-9609.575562
3594.657678,-593.420005,976.271621,-9245.866526
3594.660253,-1263.410333,-899.701298,-9341.579430
3594.662829,-267.996131,-287.138712,-9188.438784
3594.665405,-1263.410333,842.273555,-8997.012976
3594.667980,-1512.263883,-1205.982590,-8958.727814
3594.670556,267.996131,-1416.550979,-9647.860723
3594.673132,-2067.398726,-2679.961312,-9571.290400
3594.675707,-784.845813,-172.283227,-9552.147819
3594.678283,-1129.412267,172.283227,-9131.011042
3594.680859,-1263.410333,1148.554848,-8977.870395
3594.683434,191.425808,-191.425808,-8958.727814
3594.686010,-689.132909,-3005.385186,-9322.436850
3594.688585,-1052.841944,-1033.699363,-9150.153622
3594.691161,-880.558717,401.994197,-9131.011042
3594.693737,-401.994197,1971.685822,-9207.581365
3594.696312,-2086.541307,2067.398726,-9150.153622
3594.698888,-1971.685822,-3617.947771,-9705.288466
3594.701464,1741.974853,-937.986459,-9341.579430
3594.704041,-210.568389,440.279358,-8614.161360
3594.706619,-114.855485,-57.427742,-8939.585234
3594.709197,-2163.111630,4919.643266,-9035.298138
3594.711774,-1110.269686,-6087.340694,-8901.300072
3594.714352,172.283227,3981.656806,-9226.723946
3594.716930,-1263.410333,-4211.367776,-9686.145885
3594.719507,-650.847747,-114.855485,-9150.153622
3594.722085,-2105.683888,114.855485,-8480.163294
3594.724663,593.420005,-593.420005,-8518.448456
3594.727241,-1167.697429,-746.560651,-8882.157491
3594.729818,-612.562586,344.566454,-8977.870395
3594.732396,-727.418070,-1435.693560,-9131.011042
3594.734974,-497.707101,-1052.841944,-8901.300072
3594.737551,-1339.980656,-803.988394,-8920.442653
3594.740129,-172.283227,-1091.127106,-9456.434915
3594.742707,-535.992262,1339.980656,-8805.587168
3594.745284,-421.136778,3081.955509,-8441.878133
3594.747862,267.996131,-1091.127106,-8939.585234
3594.750440,-1167.697429,-1914.258080,-9035.298138
3594.753018,-363.709035,1550.549045,-8805.587168
3594.755595,306.281293,3254.238736,-8863.014910
3594.758173,-1148.554848,1952.543242,-8805.587168
3594.760751,-421.136778,2048.256146,-8920.442653
3594.763328,-267.996131,-1244.267752,-9341.579430
3594.765906,-1033.699363,-1359.123237,-8939.585234
3594.768484,153.140646,1416.550979,-8480.163294
3594.771062,478.564520,1646.261949,-8690.731683
3594.773639,-842.273555,1186.840010,-8805.587168
3594.776217,-382.851616,1186.840010,-8729.016845
3594.778795,1454.836141,38.285162,-9035.298138
3594.781372,631.705166,6183.053598,-9054.440718
3594.783950,-3388.236802,-1818.545176,-9226.723946
3594.786528,497.707101,6527.620053,-9150.153622
3594.789105,-2718.246474,-8116.454259,-9111.868461
3594.791683,957.129040,3962.514226,-8805.587168
3594.794261,95.712904,-1091.127106,-9169.296203
3594.796839,287.138712,727.418070,-8786.444587
3594.799416,-708.275490,3732.803256,-8499.305875
3594.801994,-631.705166,-1856.830338,-9245.866526
3594.804572,-344.566454,1359.123237,-8977.870395
3594.807152,-1014.556782,-535.992262,-8977.870395
3594.809732,459.421939,1761.117434,-9245.866526
3594.812311,-899.701298,-497.707101,-9092.725880
3594.814891,248.853550,3120.240670,-8403.592971
3594.817471,-746.560651,-497.707101,-8863.014910
3594.820051,-612.562586,-2182.254211,-9494.720077
3594.822631,-1454.836141,-114.855485,-9456.434915
3594.825211,19.142581,1186.840010,-9513.862658
3594.827791,-1205.982590,-287.138712,-9131.011042
3594.830371,-1205.982590,-516.849682,-8575.876198
3594.832951,-535.992262,-2373.680019,-9245.866526
3594.835531,-708.275490,-3828.516160,-9360.722011
3594.838111,-708.275490,535.992262,-8882.157491
3594.840691,-1186.840010,1339.980656,-9111.868461
3594.843271,-823.130974,-421.136778,-9207.581365
3594.845851,-1225.125171,-1014.556782,-9265.009107
3594.848431,-957.129040,-2469.392923,-9590.432981
3594.851011,-1014.556782,-2277.967115,-9360.722011
3594.853591,-1091.127106,1780.260014,-8920.442653
3594.856171,-191.425808,1473.978722,-8958.727814
3594.858751,344.566454,191.425808,-9054.440718
3594.861331,-2699.103893,-2048.256146,-9150.153622
3594.863911,0.000000,57.427742,-9399.007173
3594.866491,-612.562586,1263.410333,-9494.720077
3594.869070,-3254.238736,-3005.385186,-9322.436850
3594.871650,-210.568389,-650.847747,-9092.725880
3594.874230,421.136778,-2699.103893,-9341.579430
3594.876810,-1359.123237,-1933.400661,-9150.153622
3594.879390,631.705166,3790.230998,-8384.450390
3594.881970,-976.271621,-1780.260014,-9073.583299
3594.884550,-918.843878,1665.404530,-8939.585234
3594.887130,-1225.125171,-1473.978722,-9150.153622
3594.889710,-440.279358,-1378.265818,-9360.722011
3594.892290,-1225.125171,-1454.836141,-9360.722011
3594.894870,-593.420005,-210.568389,-9475.577496
3594.897450,-727.418070,-1952.543242,-8977.870395
3594.900030,-1186.840010,-1071.984525,-8843.872330
3594.902610,-669.990328,2833.101958,-8939.585234
3594.905190,76.570323,3503.092286,-9245.866526
3594.907770,-1627.119368,-2067.398726,-9303.294269
3594.910350,210.568389,995.414202,-9207.581365
3594.912931,-1550.549045,-1646.261949,-9437.292334
3594.915512,-497.707101,2488.535504,-9207.581365
3594.918093,-191.425808,3981.656806,-8480.163294
3594.920673,191.425808,191.425808,-8958.727814
3594.923254,-689.132909,-191.425808,-9111.868461
3594.925835,-976.271621,-803.988394,-8882.157491
3594.928416,497.707101,1722.832272,-9054.440718
3594.930996,-2105.683888,-38.285162,-9226.723946
3594.933577,38.285162,4402.793584,-9169.296203
3594.936158,-382.851616,-1512.263883,-8882.157491
3594.938738,689.132909,153.140646,-8843.872330
3594.941319,-1205.982590,4613.361973,-8863.014910
3594.943900,-210.568389,-4153.940034,-9131.011042
3594.946481,823.130974,2756.531635,-8575.876198
3594.949061,-344.566454,6604.190376,-8652.446522
3594.951642,-2220.539373,-5015.356170,-9533.005238
3594.954223,-478.564520,3943.371645,-9456.434915
3594.956803,-516.849682,1569.691626,-8518.448456
3594.959384,1110.269686,3158.525832,-8729.016845
3594.961965,-1722.832272,19.142581,-8824.729749
3594.964546,-38.285162,-191.425808,-8556.733618
3594.967126,0.000000,1933.400661,-8939.585234
3594.969707,-918.843878,-574.277424,-9188.438784
3594.972288,440.279358,4077.369710,-8786.444587
3594.974868,-650.847747,-76.570323,-9073.583299
3594.977449,401.994197,172.283227,-8997.012976
3594.980030,-2335.394858,-2833.101958,-8633.303941
3594.982611,1435.693560,2277.967115,-9226.723946
3594.985191,-1014.556782,-1684.547110,-9054.440718
3594.987772,-593.420005,1282.552914,-8288.737486
3594.990353,-440.279358,-1531.406464,-8729.016845
3594.992934,-1320.838075,-2584.248408,-8939.585234
3594.995514,-1129.412267,-746.560651,-9322.436850
3594.998095,-133.998066,267.996131,-9169.296203
3595.000676,-803.988394,191.425808,-8805.587168
3595.003256,-1282.552914,38.285162,-8843.872330
3595.005837,-153.140646,-1493.121302,-8977.870395
3595.008418,-1052.841944,-2775.674216,-8901.300072
3595.010999,-459.421939,-976.271621,-8652.446522
3595.013580,95.712904,2813.959378,-9437.292334
3595.016162,-1205.982590,1895.115499,-9418.149754
3595.018743,-3062.812928,-3905.086483,-9207.581365
3595.021325,363.709035,-899.701298,-9169.296203
3595.023906,-765.703232,-1454.836141,-9073.583299
3595.026488,-1225.125171,3081.955509,-8901.300072
3595.029069,-1129.412267,-937.986459,-8863.014910
3595.031651,-210.568389,-2622.533570,-8575.876198
3595.034232,-1799.402595,-19.142581,-9360.722011
3595.036814,-995.414202,-1014.556782,-9667.003304
3595.039395,-689.132909,-1397.408398,-9456.434915
3595.041977,-1378.265818,-57.427742,-9035.298138
3595.044558,-1033.699363,153.140646,-9092.725880
3595.047140,-1378.265818,-1837.687757,-9169.296203
3595.049721,-842.273555,-229.710970,-9016.155557
3595.052303,-95.712904,-1531.406464,-9341.579430
3595.054884,-1148.554848,-1684.547110,-9341.579430
3595.057466,-1014.556782,612.562586,-8958.727814
3595.060047,-555.134843,3771.088418,-9188.438784
3595.062629,-382.851616,-57.427742,-9437.292334
3595.065210,-1799.402595,-1129.412267,-9284.151688
3595.067792,459.421939,-937.986459,-9552.147819
3595.070373,-1646.261949,95.712904,-9169.296203
3595.072955,-382.851616,3139.383251,-8518.448456
3595.075536,267.996131,3522.234867,-9092.725880
3595.078118,-842.273555,-880.558717,-9590.432981
3595.080699,-784.845813,-957.129040,-9494.720077
3595.083281,-1473.978722,248.853550,-9571.290400
3595.085862,-287.138712,2201.396792,-9437.292334
3595.088444,-2258.824534,1052.841944,-9131.011042
3595.091025,-344.566454,3043.670347,-9360.722011
3595.093607,-497.707101,1646.261949,-9131.011042
3595.096188,-1780.260014,-9303.294269,-9245.866526
3595.098770,1895.115499,12882.956878,-9092.725880
3595.101351,-4670.789715,-11217.552349,-9437.292334
3595.103933,3235.096155,13572.089787,-8595.018779
3595.106514,-3598.805190,-4996.213589,-9341.579430
3595.109096,440.279358,2909.672282,-9609.575562
3595.111677,-2718.246474,-57.427742,-9609.575562
3595.114259,-957.129040,-1378.265818,-8977.870395
3595.116841,421.136778,3579.662610,-8805.587168
3595.119423,-1550.549045,-2220.539373,-9054.440718
3595.122006,38.285162,2335.394858,-9111.868461
3595.124588,-459.421939,133.998066,-9609.575562
3595.127170,-842.273555,1225.125171,-9399.007173
3595.129753,-1052.841944,2182.254211,-9494.720077
3595.132335,516.849682,0.000000,-8767.302006
3595.134917,-1875.972918,-2277.967115,-8767.302006
3595.137499,-38.285162,1799.402595,-8863.014910
3595.140082,-57.427742,38.285162,-9245.866526
3595.142664,-1129.412267,-344.566454,-8709.874264
3595.145246,-1167.697429,-880.558717,-8958.727814
3595.147829,-669.990328,-1971.685822,-9341.579430
3595.150411,-1569.691626,-1741.974853,-9150.153622
3595.152993,-1033.699363,1435.693560,-8403.592971
3595.155576,344.566454,1282.552914,-8767.302006
3595.158158,-1473.978722,-1780.260014,-8843.872330
3595.160740,-593.420005,-555.134843,-8748.159426
3595.163323,-210.568389,-4077.369710,-9035.298138
3595.165905,-1301.695494,421.136778,-8882.157491
3595.168487,57.427742,1703.689691,-9016.155557
3595.171070,-401.994197,4345.365842,-8958.727814
3595.173652,-2354.537438,-1397.408398,-9054.440718
3595.176234,-784.845813,-1837.687757,-8901.300072
3595.178816,-1014.556782,-2316.252277,-9092.725880
3595.181399,-76.570323,-4709.074877,-8882.157491
3595.183981,76.570323,5972.485210,-8480.163294
3595.186563,-708.275490,-3407.379382,-8901.300072
3595.189146,-306.281293,363.709035,-8824.729749
3595.191728,-1110.269686,-1875.972918,-8729.016845
3595.194310,535.992262,823.130974,-9073.583299
3595.196893,-1684.547110,-842.273555,-8939.585234
3595.199475,-784.845813,689.132909,-8365.307810
3595.202057,-401.994197,-1818.545176,-9035.298138
3595.204640,-516.849682,-3962.514226,-8824.729749
3595.207222,-382.851616,-574.277424,-8556.733618
3595.209804,133.998066,-133.998066,-9073.583299
3595.212387,-995.414202,2699.103893,-9245.866526
3595.214969,-1780.260014,2794.816797,-8671.589102
3595.217551,-516.849682,-2163.111630,-9226.723946
3595.220133,210.568389,-1990.828403,-9284.151688
3595.222715,-440.279358,1263.410333,-8863.014910
3595.225297,363.709035,3369.094221,-8748.159426
3595.227879,-1627.119368,2124.826469,-8537.591037
3595.230461,-1780.260014,-172.283227,-9456.434915
3595.233043,-95.712904,-535.992262,-9934.999435
3595.235625,-1033.699363,-1837.687757,-9399.007173
3595.238207,-765.703232,4192.225195,-8786.444587
3595.240789,-784.845813,1186.840010,-9054.440718
3595.243371,76.570323,2622.533570,-8997.012976
3595.245953,-2029.113565,1205.982590,-8805.587168
3595.248535,1091.127106,-1990.828403,-9207.581365
3595.251117,2813.959378,9839.286531,-9111.868461
3595.253699,-5953.342629,-5915.057467,-9456.434915
3595.256281,2737.389054,5819.344563,-8805.587168
3595.258863,-1339.980656,1722.832272,-9092.725880
3595.261445,-1493.121302,-3522.234867,-9341.579430
3595.264027,746.560651,4843.072942,-9513.862658
3595.266609,-669.990328,-3579.662610,-9437.292334
3595.269191,-650.847747,4000.799387,-8824.729749
3595.271773,-1339.980656,1952.543242,-9341.579430
3595.274355,-153.140646,-1014.556782,-9552.147819
3595.276937,-1454.836141,1320.838075,-9341.579430
3595.279519,555.134843,803.988394,-9724.431046
3595.282100,-1052.841944,1091.127106,-9303.294269
3595.284682,-1320.838075,-593.420005,-8843.872330
3595.287264,-803.988394,708.275490,-9111.868461
3595.289846,-344.566454,-2067.398726,-9303.294269
3595.292428,-1473.978722,0.000000,-9150.153622
3595.295010,-957.129040,-478.564520,-9265.009107
3595.297592,-287.138712,-2277.967115,-9494.720077
3595.300174,-2201.396792,-861.416136,-9207.581365
3595.302756,-574.277424,-593.420005,-9418.149754
3595.305338,-1244.267752,-689.132909,-9418.149754
3595.307920,-880.558717,-76.570323,-8997.012976
3595.310502,-248.853550,-210.568389,-8786.444587
3595.313084,-937.986459,-1914.258080,-9092.725880
3595.315666,-1359.123237,-842.273555,-9169.296203
3595.318248,-765.703232,2565.105827,-9188.438784
3595.320830,-1301.695494,2354.537438,-9647.860723
3595.323412,-2679.961312,-5053.641331,-9437.292334
3595.325994,325.423874,708.275490,-9341.579430
3595.328576,-650.847747,-3924.229064,-9150.153622
3595.331158,-191.425808,-4077.369710,-8518.448456
3595.333740,248.853550,5627.918755,-8537.591037
3595.336322,-612.562586,-4536.791650,-8939.585234
3595.338904,-1071.984525,2335.394858,-9092.725880
3595.341486,-1627.119368,-3617.947771,-9533.005238
3595.344068,-478.564520,2392.822600,-9399.007173
3595.346650,-2277.967115,-3254.238736,-9035.298138
3595.349232,-57.427742,861.416136,-8461.020714
3595.351814,-478.564520,-1397.408398,-8882.157491
3595.354397,-401.994197,-3235.096155,-9073.583299
3595.356979,-1129.412267,-267.996131,-8863.014910
3595.359561,153.140646,-535.992262,-9303.294269
3595.362143,-1301.695494,3215.953574,-8939.585234
3595.364725,-497.707101,2890.529701,-8958.727814
3595.367307,114.855485,-937.986459,-8863.014910
3595.369889,-650.847747,-2526.820666,-9073.583299
3595.372471,-76.570323,2660.818731,-8748.159426
3595.375053,38.285162,3120.240670,-8824.729749
3595.377635,-1091.127106,2507.678085,-8614.161360
3595.380217,-1339.980656,1052.841944,-8729.016845
3595.382799,669.990328,-153.140646,-9207.581365
3595.385381,-1416.550979,-2029.113565,-9245.866526
3595.387963,-823.130974,3694.518094,-8709.874264
3595.390545,1091.127106,229.710970,-8633.303941
3595.393127,-363.709035,-1435.693560,-8461.020714
3595.395709,-133.998066,4383.651003,-8499.305875
3595.398291,-1033.699363,-6355.336826,-9092.725880
3595.400873,2220.539373,803.988394,-8920.442653
3595.403455,-1531.406464,5551.348432,-8805.587168
3595.406037,-4938.785846,-4957.928427,-9437.292334
3595.408619,823.130974,1454.836141,-8709.874264
3595.411201,76.570323,-880.558717,-8767.302006
3595.413783,918.843878,784.845813,-9169.296203
3595.416365,-1435.693560,1205.982590,-9035.298138
3595.418947,-325.423874,459.421939,-8499.305875
3595.421529,0.000000,3235.096155,-8614.161360
3595.424111,-229.710970,-1454.836141,-8824.729749
3595.426693,-421.136778,2086.541307,-9131.011042
3595.429274,-708.275490,325.423874,-9475.577496
3595.431855,-267.996131,-172.283227,-9016.155557
3595.434436,-2029.113565,-133.998066,-8575.876198
3595.437017,765.703232,957.129040,-8958.727814
3595.439598,-1454.836141,-2182.254211,-9073.583299
3595.442180,-497.707101,-382.851616,-8575.876198
3595.444761,-325.423874,-861.416136,-9284.151688
3595.447342,-1588.834206,-3196.810994,-9686.145885
3595.449923,-1454.836141,210.568389,-9131.011042
3595.452504,-918.843878,38.285162,-9035.298138
3595.455085,-421.136778,-535.992262,-9111.868461
3595.457666,-1110.269686,-555.134843,-8824.729749
3595.460248,0.000000,-708.275490,-9016.155557
3595.462829,-1282.552914,-3483.949706,-8977.870395
3595.465410,-2201.396792,-153.140646,-9073.583299
3595.467991,-306.281293,4192.225195,-9360.722011
3595.470572,-2641.676150,-4077.369710,-9839.286531
3595.473153,-497.707101,-1071.984525,-9111.868461
3595.475734,-842.273555,-4613.361973,-9245.866526
3595.478316,593.420005,-2411.965181,-8748.159426
3595.480897,-669.990328,3598.805190,-8499.305875
3595.483478,-497.707101,-4173.082614,-8939.585234
3595.486059,-382.851616,497.707101,-9513.862658
3595.488640,-2813.959378,-4019.941968,-9533.005238
3595.491221,669.990328,2507.678085,-9131.011042
3595.493803,-1780.260014,-2105.683888,-9667.003304
3595.496384,-727.418070,-38.285162,-9054.440718
3595.498965,-937.986459,-1837.687757,-9265.009107
3595.501546,-287.138712,-3828.516160,-9226.723946
3595.504127,-1569.691626,-497.707101,-9054.440718
3595.506708,-401.994197,1856.830338,-9322.436850
3595.509289,-555.134843,3828.516160,-9341.579430
3595.511871,-1914.258080,-306.281293,-9035.298138
3595.514452,-497.707101,57.427742,-9360.722011
3595.517033,-976.271621,-2928.814862,-9628.718142
3595.519614,-535.992262,2545.963246,-9341.579430
3595.522195,-593.420005,2392.822600,-9265.009107
3595.524776,650.847747,2029.113565,-8920.442653
3595.527358,-1799.402595,-631.705166,-9035.298138
3595.529938,-325.423874,421.136778,-9284.151688
3595.532519,-478.564520,937.986459,-9456.434915
3595.535099,-1665.404530,2067.398726,-9284.151688
3595.537680,210.568389,4479.363907,-9226.723946
3595.540261,-1588.834206,1780.260014,-9399.007173
3595.542841,-2086.541307,-8116.454259,-9245.866526
3595.545422,4287.938099,14031.511726,-8863.014910
3595.548002,-5474.778109,-7791.030386,-9245.866526
3595.550583,3598.805190,3713.660675,-8556.733618
3595.553164,-1320.838075,5895.914886,-9035.298138
3595.555744,-1014.556782,-5781.059402,-9571.290400
3595.558325,-229.710970,5723.631659,-9284.151688
3595.560905,-1665.404530,-1761.117434,-9686.145885
3595.563486,995.414202,1799.402595,-8595.018779
3595.566067,-1033.699363,1435.693560,-8939.585234
3595.568647,325.423874,-478.564520,-8633.303941
3595.571228,-861.416136,2124.826469,-8901.300072
3595.573809,19.142581,-1186.840010,-9188.438784
3595.576389,-746.560651,3617.947771,-9188.438784
3595.578970,-1244.267752,-2507.678085,-9456.434915
3595.581550,-861.416136,2143.969050,-9092.725880
3595.584131,-2143.969050,-995.414202,-8403.592971
3595.586712,918.843878,-325.423874,-8863.014910
3595.589292,-1646.261949,-2105.683888,-9188.438784
3595.591873,-612.562586,-1071.984525,-8805.587168
3595.594453,-421.136778,57.427742,-8997.012976
3595.597034,-1550.549045,-1033.699363,-8748.159426
3595.599615,-918.843878,1914.258080,-9054.440718
3595.602195,-421.136778,-1856.830338,-9226.723946
3595.604776,-497.707101,-3311.666478,-8863.014910
3595.607356,-478.564520,-210.568389,-8212.167163
3595.609937,478.564520,-1244.267752,-8729.016845
3595.612517,-727.418070,765.703232,-8901.300072
3595.615098,-1378.265818,1607.976787,-8709.874264
3595.617678,-153.140646,-1320.838075,-9111.868461
3595.620259,-1703.689691,-4326.223261,-9226.723946
3595.622839,-555.134843,-2392.822600,-8748.159426
3595.625419,0.000000,612.562586,-8939.585234
3595.628000,-1359.123237,-4689.932296,-9016.155557
3595.630580,382.851616,1014.556782,-8403.592971
3595.633160,-593.420005,-2163.111630,-8920.442653
3595.635741,-803.988394,-1339.980656,-8997.012976
3595.638321,-593.420005,2029.113565,-8767.302006
3595.640902,-1416.550979,-2048.256146,-9303.294269
3595.643482,-535.992262,-2163.111630,-9073.583299
3595.646062,-1607.976787,-2507.678085,-8748.159426
3595.648643,459.421939,382.851616,-9226.723946
3595.651223,-1263.410333,612.562586,-9150.153622
3595.653803,-382.851616,5245.067139,-8614.161360
3595.656384,-574.277424,-1320.838075,-8786.444587
3595.658964,-57.427742,-1033.699363,-8824.729749
3595.661544,-880.558717,1454.836141,-9150.153622
3595.664125,114.855485,2354.537438,-9245.866526
3595.666705,-708.275490,2220.539373,-9188.438784
3595.669286,-1225.125171,803.988394,-8882.157491
3595.671866,210.568389,-19.142581,-8997.012976
3595.674446,-1091.127106,-3101.098090,-8958.727814
3595.677027,650.847747,1875.972918,-8499.305875
3595.679607,-363.709035,3235.096155,-9322.436850
3595.682187,-861.416136,2431.107762,-9265.009107
3595.684768,-3196.810994,-5761.916821,-9322.436850
3595.687348,2526.820666,2775.674216,-9360.722011
3595.689929,-669.990328,-2163.111630,-9131.011042
3595.692509,-1263.410333,7408.178770,-8882.157491
3595.695089,-631.705166,-1722.832272,-9245.866526
3595.697670,-516.849682,1952.543242,-8882.157491
3595.700250,-1646.261949,1512.263883,-9169.296203
3595.702830,0.000000,3292.523898,-9399.007173
3595.705411,-1225.125171,459.421939,-9686.145885
3595.707991,-133.998066,1014.556782,-9150.153622
3595.710572,-1320.838075,1359.123237,-9131.011042
3595.713152,-535.992262,-325.423874,-9322.436850
3595.715731,-1071.984525,1148.554848,-8824.729749
3595.718310,669.990328,880.558717,-9226.723946
3595.720890,-593.420005,650.847747,-9437.292334
3595.723469,-1780.260014,-1531.406464,-9054.440718
3595.726048,-421.136778,593.420005,-9245.866526
3595.728627,-1129.412267,-2526.820666,-9437.292334
3595.731207,-1416.550979,-1244.267752,-9418.149754
3595.733786,-976.271621,-1703.689691,-9418.149754
3595.736365,-612.562586,-1990.828403,-9188.438784
3595.738944,-2220.539373,899.701298,-8786.444587
3595.741523,-478.564520,-19.142581,-9188.438784
3595.744103,-210.568389,-2679.961312,-9475.577496
3595.746682,-1167.697429,-2182.254211,-9360.722011
3595.749261,-1263.410333,248.853550,-9494.720077
3595.751840,-1339.980656,-1703.689691,-9762.716208
3595.754420,-1741.974853,-3062.812928,-9169.296203
3595.756999,267.996131,1703.689691,-9188.438784
3595.759578,0.000000,-191.425808,-8882.157491
3595.762157,-1990.828403,-937.986459,-9073.583299
3595.764737,-555.134843,-210.568389,-9169.296203
3595.767316,-478.564520,-995.414202,-9111.868461
3595.769895,-1416.550979,-2029.113565,-9131.011042
3595.772474,-1454.836141,1014.556782,-9360.722011
3595.775054,-555.134843,-3139.383251,-9418.149754
3595.777633,-191.425808,114.855485,-8786.444587
3595.780212,-1473.978722,-612.562586,-8767.302006
3595.782791,-38.285162,-516.849682,-9131.011042
3595.785370,-1741.974853,-2928.814862,-9054.440718
3595.787950,-421.136778,401.994197,-9150.153622
3595.790529,-1071.984525,382.851616,-9437.292334
3595.793108,-1071.984525,2316.252277,-9073.583299
3595.795687,459.421939,2928.814862,-9226.723946
3595.798267,76.570323,-363.709035,-8997.012976
3595.800846,-1167.697429,-1722.832272,-9035.298138
3595.803425,-153.140646,3005.385186,-8690.731683
3595.806004,-95.712904,2048.256146,-8997.012976
3595.808584,-440.279358,2143.969050,-9035.298138
3595.811163,-1071.984525,593.420005,-9322.436850
3595.813742,-153.140646,-823.130974,-9513.862658
3595.816321,-1780.260014,669.990328,-9265.009107
3595.818897,-765.703232,4173.082614,-8537.591037
3595.821476,191.425808,5704.489078,-8901.300072
3595.824055,-2718.246474,-4134.797453,-9016.155557
3595.826633,1167.697429,784.845813,-8556.733618
3595.829212,-421.136778,5704.489078,-8997.012976
3595.831790,-2699.103893,-6183.053598,-9322.436850
3595.834369,689.132909,5915.057467,-9092.725880
3595.836947,-459.421939,3828.516160,-9054.440718
3595.839526,-937.986459,-3215.953574,-9131.011042
3595.842105,-555.134843,3637.090352,-8327.022648
3595.844683,95.712904,-1225.125171,-8920.442653
3595.847262,-95.712904,2890.529701,-8748.159426
3595.849840,-708.275490,344.566454,-8843.872330
3595.852419,287.138712,2201.396792,-8997.012976
3595.854998,-1531.406464,-765.703232,-8901.300072
3595.857576,-555.134843,-1071.984525,-8843.872330
3595.860155,-382.851616,2316.252277,-9303.294269
3595.862733,-631.705166,-2947.957443,-9016.155557
3595.865312,-1416.550979,1933.400661,-8212.167163
3595.867890,229.710970,-2641.676150,-8690.731683
3595.870469,-918.843878,-1435.693560,-9092.725880
3595.873048,-669.990328,-823.130974,-8824.729749
3595.875626,19.142581,-229.710970,-9207.581365
3595.878205,-1569.691626,-459.421939,-9035.298138
3595.880783,-861.416136,-133.998066,-8729.016845
3595.883362,-440.279358,-1607.976787,-9226.723946
3595.885941,-401.994197,-2124.826469,-9188.438784
3595.888519,-1033.699363,-1014.556782,-8403.592971
3595.891098,1225.125171,210.568389,-8671.589102
3595.893676,-2584.248408,-19.142581,-8939.585234
3595.896255,-1914.258080,-1129.412267,-9265.009107
3595.898834,133.998066,1531.406464,-9092.725880
3595.901412,-1722.832272,153.140646,-9284.151688
3595.903991,-2163.111630,-4517.649069,-9226.723946
3595.906569,191.425808,555.134843,-9188.438784
3595.909148,-1627.119368,-4441.078746,-8958.727814
3595.911726,344.566454,3254.238736,-8384.450390
3595.914305,-1205.982590,-3847.658741,-9169.296203
3595.916884,-689.132909,-3196.810994,-9513.862658
3595.919462,-2067.398726,210.568389,-9226.723946
3595.922011,-363.709035,-1799.402595,-9399.007173
3595.924559,-1607.976787,-1454.836141,-9016.155557
3595.927108,-535.992262,-746.560651,-8977.870395
3595.929656,306.281293,3637.090352,-9111.868461
3595.932205,-1167.697429,-114.855485,-9226.723946
3595.934753,-1531.406464,-401.994197,-9399.007173
3595.937302,-1359.123237,-172.283227,-9494.720077
3595.939850,-421.136778,-248.853550,-9437.292334
3595.942399,-1282.552914,2909.672282,-9131.011042
3595.944947,0.000000,2277.967115,-9456.434915
3595.947496,-880.558717,133.998066,-9379.864592
3595.950044,-363.709035,1205.982590,-8786.444587
3595.952593,-976.271621,38.285162,-9226.723946
3595.955141,-172.283227,3330.809059,-9456.434915
3595.957690,-1569.691626,4287.938099,-9111.868461
3595.960238,-1607.976787,2813.959378,-9437.292334
3595.962786,-880.558717,-3866.801322,-9418.149754
3595.965335,-784.845813,2086.541307,-9131.011042
3595.967883,38.285162,-3101.098090,-9322.436850
3595.970432,248.853550,3043.670347,-9092.725880
3595.972980,-1895.115499,-153.140646,-8901.300072
3595.975529,133.998066,1416.550979,-8843.872330
3595.978077,-421.136778,2775.674216,-9379.864592
3595.980626,-1014.556782,153.140646,-9379.864592
3595.983174,-401.994197,3120.240670,-9379.864592
3595.985723,-612.562586,-1339.980656,-9437.292334
3595.988271,-803.988394,3081.955509,-9035.298138
3595.990820,-823.130974,516.849682,-9322.436850
3595.993368,-229.710970,-1244.267752,-8939.585234
3595.995917,-995.414202,1205.982590,-9111.868461
3595.998465,-287.138712,-497.707101,-8997.012976
3596.001014,-1205.982590,153.140646,-9092.725880
3596.003562,-1550.549045,-2737.389054,-8920.442653
3596.006111,-306.281293,191.425808,-9418.149754
3596.008659,-880.558717,-2775.674216,-9552.147819
3596.011208,-1665.404530,-95.712904,-8729.016845
3596.013756,-1205.982590,803.988394,-8595.018779
3596.016305,-95.712904,-574.277424,-8824.729749
3596.018853,-1167.697429,-2143.969050,-8843.872330
3596.021402,-440.279358,267.996131,-9131.011042
3596.023955,-957.129040,191.425808,-9265.009107
3596.026507,-1473.978722,-2105.683888,-9303.294269
3596.029060,459.421939,-114.855485,-8958.727814
3596.031613,1301.695494,-574.277424,-8556.733618
3596.034166,191.425808,-2373.680019,-8690.731683
3596.036719,-1531.406464,2718.246474,-8499.305875
3596.039271,-248.853550,-2507.678085,-9054.440718
3596.041824,-1263.410333,2124.826469,-8748.159426
3596.044377,-727.418070,-2239.681954,-9016.155557
3596.046930,-803.988394,-1990.828403,-9092.725880
3596.049483,-593.420005,-2392.822600,-9169.296203
3596.052035,-401.994197,497.707101,-8671.589102
3596.054588,210.568389,114.855485,-8786.444587
3596.057141,-1512.263883,-4019.941968,-8729.016845
3596.059694,-535.992262,631.705166,-8461.020714
3596.062247,19.142581,-76.570323,-9054.440718
3596.064799,-1052.841944,3369.094221,-8863.014910
3596.067352,-133.998066,976.271621,-8824.729749
3596.069905,191.425808,287.138712,-8958.727814
3596.072458,-1071.984525,-1761.117434,-9150.153622
3596.075011,-172.283227,1339.980656,-8729.016845
3596.077563,-114.855485,2545.963246,-8901.300072
3596.080116,-133.998066,1205.982590,-8843.872330
3596.082669,-995.414202,2163.111630,-8480.163294
3596.085222,95.712904,287.138712,-8997.012976
3596.087775,-1110.269686,-401.994197,-9322.436850
3596.090327,-861.416136,2335.394858,-8920.442653
3596.092880,57.427742,4862.215523,-9265.009107
3596.095433,-2277.967115,-4230.510357,-9207.581365
3596.097986,287.138712,1052.841944,-8441.878133
3596.100539,95.712904,5245.067139,-9150.153622
3596.103091,-1856.830338,-1071.984525,-8863.014910
3596.105644,325.423874,3579.662610,-8250.452325
3596.108197,-669.990328,3426.521963,-9705.288466
3596.110750,-918.843878,-1761.117434,-9513.862658
3596.113303,-1110.269686,2450.250342,-9131.011042
3596.115855,-440.279358,-421.136778,-9360.722011
3596.118408,-114.855485,2048.256146,-9341.579430
3596.120961,-995.414202,1110.269686,-8939.585234
3596.123514,-210.568389,1646.261949,-8786.444587
3596.126042,-1129.412267,-2335.394858,-9513.862658
3596.128571,-918.843878,1014.556782,-9265.009107
3596.131099,-95.712904,153.140646,-9609.575562
3596.133628,-2009.970984,-1780.260014,-9322.436850
3596.136157,-1129.412267,-2029.113565,-8939.585234
3596.138685,-401.994197,-1665.404530,-9379.864592
3596.141214,-765.703232,-2469.392923,-9284.151688
3596.143742,-861.416136,957.129040,-8709.874264
3596.146271,-1225.125171,114.855485,-9188.438784
3596.148800,-478.564520,-803.988394,-9303.294269
3596.151328,-1990.828403,-1052.841944,-9016.155557
3596.153857,-76.570323,-2603.390989,-9303.294269
3596.156385,-1397.408398,-4498.506488,-9379.864592
3596.158914,172.283227,2526.820666,-9073.583299
3596.161443,-1761.117434,1895.115499,-9188.438784
3596.163971,-440.279358,-4173.082614,-9073.583299
3596.166500,401.994197,1703.689691,-9073.583299
3596.169028,-2373.680019,-650.847747,-9609.575562
3596.171557,708.275490,-2009.970984,-9284.151688
3596.174086,-2009.970984,2871.387120,-9131.011042
3596.176614,-229.710970,-3215.953574,-8958.727814
3596.179143,-363.709035,440.279358,-9188.438784
3596.181671,-1301.695494,-4307.080680,-9322.436850
3596.184200,-172.283227,2584.248408,-9245.866526
3596.186728,-210.568389,-2392.822600,-8939.585234
3596.189257,-1531.406464,-1646.261949,-8901.300072
3596.191786,-1569.691626,650.847747,-9284.151688
3596.194314,-287.138712,593.420005,-9705.288466
3596.196843,-976.271621,3196.810994,-9360.722011
3596.199371,-650.847747,133.998066,-9552.147819
3596.201900,-899.701298,-1244.267752,-9379.864592
3596.204429,-669.990328,-19.142581,-8939.585234
3596.206957,-325.423874,2967.100024,-8652.446522
3596.209486,478.564520,3158.525832,-9035.298138
3596.212014,-1550.549045,-57.427742,-9054.440718
3596.214543,-382.851616,2431.107762,-9131.011042
3596.217072,-1033.699363,-1435.693560,-9322.436850
3596.219600,-1014.556782,3713.660675,-9245.866526
3596.222129,-803.988394,4785.645200,-9475.577496
3596.224657,-2335.394858,-2813.959378,-9073.583299
3596.227193,1933.400661,6546.762634,-8882.157491
3596.229730,-3924.229064,-4153.940034,-8748.159426
3596.232266,1914.258080,-2316.252277,-9111.868461
3596.234802,172.283227,4689.932296,-9073.583299
3596.237338,-1550.549045,-1091.127106,-9360.722011
3596.239874,76.570323,3369.094221,-9226.723946
3596.242410,-1148.554848,-153.140646,-9265.009107
3596.244947,-535.992262,1818.545176,-8633.303941
3596.247483,-191.425808,1186.840010,-8805.587168
3596.250019,248.853550,-287.138712,-8786.444587
3596.252555,-1205.982590,3981.656806,-8690.731683
3596.255091,-95.712904,-2258.824534,-9035.298138
3596.257627,-1378.265818,1761.117434,-8920.442653
3596.260164,-995.414202,-1205.982590,-9265.009107
3596.262700,-382.851616,1244.267752,-8958.727814
3596.265236,-1359.123237,-4747.360038,-8958.727814
3596.267772,57.427742,229.710970,-8575.876198
3596.270308,-57.427742,-784.845813,-8824.729749
3596.272844,-497.707101,-995.414202,-8614.161360
3596.275381,-1148.554848,1225.125171,-8595.018779
3596.277917,-133.998066,-1148.554848,-8958.727814
3596.280453,-1148.554848,-1607.976787,-9303.294269
3596.282989,-861.416136,1684.547110,-8729.016845
3596.285525,-842.273555,2928.814862,-9150.153622
3596.288061,-1588.834206,-3866.801322,-9226.723946
3596.290597,-287.138712,516.849682,-8614.161360
3596.293134,-133.998066,1014.556782,-8690.731683
3596.295670,-1129.412267,-401.994197,-8595.018779
3596.298206,-650.847747,-2258.824534,-8652.446522
3596.300742,-746.560651,-95.712904,-9552.147819
3596.303278,-803.988394,-2737.389054,-9360.722011
3596.305814,-1359.123237,1282.552914,-8652.446522
3596.308351,-842.273555,-516.849682,-9131.011042
3596.310887,-612.562586,-3024.527766,-9131.011042
3596.313423,-1033.699363,-248.853550,-8671.589102
3596.315959,172.283227,-1091.127106,-8939.585234
3596.318495,-976.271621,-1665.404530,-8614.161360
3596.321031,-1799.402595,1186.840010,-9188.438784
3596.323568,76.570323,2909.672282,-9513.862658
3596.326104,-650.847747,-191.425808,-9513.862658
3596.328646,-842.273555,95.712904,-9073.583299
3596.331189,-861.416136,-727.418070,-9169.296203
3596.333732,-401.994197,267.996131,-9111.868461
3596.336275,-880.558717,2335.394858,-8671.589102
3596.338818,229.710970,3369.094221,-9533.005238
3596.341360,-1205.982590,-1416.550979,-9552.147819
3596.343903,-899.701298,-555.134843,-9284.151688
3596.346446,-459.421939,2928.814862,-9609.575562
3596.348989,-1225.125171,2909.672282,-9571.290400
3596.351531,-2143.969050,-306.281293,-9054.440718
3596.354074,593.420005,-823.130974,-8958.727814
3596.356617,-516.849682,4709.074877,-9265.009107
3596.359160,-3962.514226,-1378.265818,-9360.722011
3596.361703,95.712904,-1091.127106,-9035.298138
3596.364245,267.996131,3215.953574,-9437.292334
3596.366788,-2182.254211,-1646.261949,-9169.296203
3596.369331,-574.277424,3847.658741,-9456.434915
3596.371874,-574.277424,-2526.820666,-9839.286531
3596.374416,-899.701298,4077.369710,-9092.725880
3596.376959,-631.705166,2526.820666,-8920.442653
3596.379502,-248.853550,133.998066,-9131.011042
3596.382045,-1971.685822,1320.838075,-9169.296203
3596.384588,-650.847747,114.855485,-9245.866526
3596.387130,-631.705166,95.712904,-9494.720077
3596.389673,-1550.549045,-1665.404530,-9150.153622
3596.392216,-516.849682,-95.712904,-9322.436850
3596.394759,-1320.838075,-3388.236802,-9590.432981
3596.397301,-1129.412267,-842.273555,-8863.014910
3596.399844,-746.560651,765.703232,-8671.589102
3596.402387,-153.140646,-995.414202,-8939.585234
3596.404930,-1473.978722,-842.273555,-9150.153622
3596.407473,-440.279358,-957.129040,-9399.007173
3596.410015,-1205.982590,-1837.687757,-9360.722011
3596.412558,-1263.410333,-267.996131,-8977.870395
3596.415101,-1014.556782,8346.165229,-8537.591037
3596.417644,-2756.531635,-8441.878133,-9035.298138
3596.420186,1359.123237,7082.754896,-8805.587168
3596.422729,-4996.213589,-9303.294269,-9379.864592
3596.425272,2603.390989,2584.248408,-9016.155557
3596.427815,-2967.100024,-2718.246474,-9169.296203
3596.430364,-38.285162,-937.986459,-9016.155557
3596.432912,-880.558717,746.560651,-9284.151688
3596.435461,-2182.254211,-4307.080680,-9226.723946
3596.438010,-172.283227,1359.123237,-8173.882002
3596.440558,-631.705166,-1339.980656,-8843.872330
3596.443107,-937.986459,-2048.256146,-8920.442653
3596.445656,-765.703232,153.140646,-8595.018779
3596.448204,459.421939,57.427742,-8977.870395
3596.450753,-823.130974,3081.955509,-8958.727814
3596.453302,-995.414202,842.273555,-8863.014910
3596.455851,153.140646,1091.127106,-8977.870395
3596.458399,-1205.982590,-976.271621,-9016.155557
3596.460948,-287.138712,1665.404530,-8614.161360
3596.463497,-76.570323,2354.537438,-8901.300072
3596.466045,57.427742,593.420005,-8882.157491
3596.468594,-555.134843,2029.113565,-8805.587168
3596.471143,191.425808,-421.136778,-9150.153622
3596.473692,-727.418070,1512.263883,-9207.581365
3596.476240,-1875.972918,2469.392923,-8863.014910
3596.478789,1359.123237,-650.847747,-8882.157491
3596.481338,-708.275490,861.416136,-8939.585234
3596.483886,-1033.699363,2928.814862,-8729.016845
3596.486435,-937.986459,-363.709035,-9054.440718
3596.488984,0.000000,267.996131,-8843.872330
3596.491532,-421.136778,1952.543242,-9226.723946
3596.494081,-861.416136,1818.545176,-9322.436850
3596.496630,-382.851616,-459.421939,-9475.577496
3596.499179,-1033.699363,861.416136,-8843.872330
3596.501727,478.564520,1454.836141,-9169.296203
3596.504276,-1052.841944,-1071.984525,-9245.866526
3596.506825,-574.277424,2565.105827,-8671.589102
3596.509373,-612.562586,-1397.408398,-8863.014910
3596.511922,-650.847747,-325.423874,-9475.577496
3596.514471,-995.414202,-516.849682,-9226.723946
3596.517020,-1110.269686,-1014.556782,-9207.581365
3596.519568,-1071.984525,-3273.381317,-9571.290400
3596.522117,-1052.841944,-248.853550,-9131.011042
3596.524666,-497.707101,-1052.841944,-9207.581365
3596.527214,-516.849682,-440.279358,-8843.872330
3596.529763,-1244.267752,-899.701298,-8537.591037
3596.532316,19.142581,478.564520,-9456.434915
3596.534870,-1301.695494,-5245.067139,-9322.436850
3596.537423,-1205.982590,-2852.244539,-9073.583299
3596.539976,248.853550,1301.695494,-9226.723946
3596.542530,-1205.982590,1148.554848,-9437.292334
3596.545083,-1684.547110,-3713.660675,-9131.011042
3596.547636,535.992262,6604.190376,-9245.866526
3596.550190,-3617.947771,-9379.864592,-9590.432981
3596.552743,-631.705166,-363.709035,-9073.583299
3596.555296,-1569.691626,1703.689691,-9284.151688
3596.557850,-708.275490,-3694.518094,-9360.722011
3596.560403,-1416.550979,382.851616,-9111.868461
3596.562956,-823.130974,-2143.969050,-9667.003304
3596.565510,-229.710970,-1014.556782,-9494.720077
3596.568063,-1952.543242,-1856.830338,-9035.298138
3596.570616,267.996131,957.129040,-8882.157491
3596.573170,-976.271621,191.425808,-8977.870395
3596.575723,-842.273555,2928.814862,-9131.011042
3596.578276,-746.560651,957.129040,-9475.577496
3596.580830,-153.140646,-669.990328,-9437.292334
3596.583383,-1703.689691,229.710970,-9188.438784
3596.585936,-382.851616,689.132909,-9418.149754
3596.588490,-937.986459,1378.265818,-9494.720077
3596.591043,-574.277424,842.273555,-8901.300072
3596.593596,-191.425808,1512.263883,-8786.444587
3596.596150,-516.849682,344.566454,-9169.296203
3596.598703,-555.134843,-2450.250342,-9150.153622
3596.601256,57.427742,4383.651003,-9092.725880
3596.603810,-1301.695494,3330.809059,-9609.575562
3596.606363,-2220.539373,1378.265818,-9379.864592
3596.608916,-1091.127106,5436.492947,-8518.448456
3596.611470,172.283227,-2373.680019,-9188.438784
3596.614023,-1167.697429,4019.941968,-9016.155557
3596.616576,-1320.838075,-861.416136,-8920.442653
3596.619129,267.996131,4000.799387,-8824.729749
3596.621683,-1320.838075,-650.847747,-8882.157491
3596.624236,306.281293,3273.381317,-9265.009107
3596.626789,-842.273555,-325.423874,-9609.575562
3596.629343,-593.420005,-1320.838075,-8977.870395
3596.631896,-497.707101,2565.105827,-8346.165229
3596.634454,19.142581,95.712904,-8786.444587
3596.637011,-995.414202,-631.705166,-8824.729749
3596.639568,-899.701298,-210.568389,-8729.016845
3596.642126,-95.712904,-1799.402595,-9016.155557
3596.644683,-1646.261949,-1895.115499,-9341.579430
3596.647241,-574.277424,191.425808,-8824.729749
3596.649798,-153.140646,-1071.984525,-8863.014910
3596.652356,-727.418070,-287.138712,-8671.589102
3596.654913,-842.273555,-1282.552914,-8556.733618
3596.657471,555.134843,650.847747,-9131.011042
3596.660028,-1014.556782,-4977.071008,-8805.587168
3596.662586,-555.134843,421.136778,-8441.878133
3596.665143,-440.279358,1646.261949,-9035.298138
3596.667700,-1493.121302,-2335.394858,-9360.722011
3596.670258,-440.279358,-3522.234867,-8767.302006
3596.672815,-38.285162,-440.279358,-9092.725880
3596.675373,-995.414202,-3905.086483,-9131.011042
3596.677930,-765.703232,535.992262,-8480.163294
3596.680488,-287.138712,-1052.841944,-8824.729749
3596.683045,-708.275490,-95.712904,-8748.159426
3596.685603,-976.271621,-650.847747,-9207.581365
3596.688160,133.998066,-2297.109696,-9533.005238
3596.690718,-1856.830338,-3426.521963,-9169.296203
3596.693275,-95.712904,-229.710970,-8786.444587
3596.695832,-784.845813,1550.549045,-8977.870395
3596.698390,-803.988394,1052.841944,-8977.870395
3596.700947,-76.570323,1684.547110,-8499.305875
3596.703505,76.570323,38.285162,-8997.012976
3596.706062,-1588.834206,-1703.689691,-9628.718142
3596.708620,-842.273555,1531.406464,-9150.153622
3596.711177,-650.847747,2201.396792,-9207.581365
3596.713735,-248.853550,957.129040,-9265.009107
3596.716292,-1244.267752,555.134843,-8997.012976
3596.718849,191.425808,-478.564520,-9303.294269
3596.721407,-842.273555,-1186.840010,-9111.868461
3596.723964,-976.271621,-650.847747,-9341.579430
3596.726522,803.988394,287.138712,-9169.296203
3596.729079,-937.986459,535.992262,-9360.722011
3596.731637,-440.279358,-1933.400661,-9150.153622
3596.734194,76.570323,2699.103893,-9399.007173
3596.736755,-1205.982590,-1512.263883,-9552.147819
3596.739315,-708.275490,5130.211654,-8633.303941
3596.741875,-631.705166,114.855485,-9265.009107
3596.744436,-784.845813,248.853550,-9647.860723
3596.746996,-1435.693560,1033.699363,-9552.147819
3596.749556,-401.994197,746.560651,-9647.860723
3596.752117,-612.562586,784.845813,-9418.149754
3596.754677,-1550.549045,-382.851616,-9150.153622
3596.757237,-746.560651,2967.100024,-9399.007173
3596.759798,-689.132909,-3407.379382,-9418.149754
3596.762358,-1397.408398,631.705166,-8767.302006
3596.764918,-535.992262,-1818.545176,-9150.153622
3596.767479,-57.427742,-1320.838075,-9379.864592
3596.770039,-1454.836141,-267.996131,-9073.583299
3596.772599,-1014.556782,-95.712904,-9188.438784
3596.775160,-918.843878,-516.849682,-9322.436850
3596.777720,-1435.693560,-478.564520,-9226.723946
3596.780280,-229.710970,-306.281293,-9686.145885
3596.782841,133.998066,-1933.400661,-8786.444587
3596.785401,-574.277424,3273.381317,-8767.302006
3596.787961,-3101.098090,-2029.113565,-9169.296203
3596.790522,478.564520,-4192.225195,-9226.723946
3596.793082,287.138712,2718.246474,-9016.155557
3596.795642,-2392.822600,-2469.392923,-9494.720077
3596.798203,-535.992262,-2603.390989,-9379.864592
3596.800763,-1435.693560,1033.699363,-8958.727814
3596.803323,-746.560651,-229.710970,-8863.014910
3596.805884,-478.564520,-1875.972918,-9073.583299
3596.808444,-1071.984525,-1895.115499,-9054.440718
3596.811005,-440.279358,1110.269686,-8882.157491
3596.813565,-593.420005,-2105.683888,-9169.296203
3596.816125,-957.129040,248.853550,-9150.153622
3596.818686,-1263.410333,1244.267752,-9284.151688
3596.821246,1263.410333,2488.535504,-8786.444587
3596.823806,-1741.974853,-248.853550,-8958.727814
3596.826367,-76.570323,248.853550,-8920.442653
3596.828927,-153.140646,842.273555,-8843.872330
3596.831487,-784.845813,382.851616,-8786.444587
3596.834048,-229.710970,3790.230998,-8748.159426
3596.836608,-38.285162,1512.263883,-9054.440718
3596.839171,-1071.984525,1550.549045,-9245.866526
3596.841735,-1493.121302,3273.381317,-8671.589102
3596.844298,19.142581,1799.402595,-9150.153622
3596.846861,-1301.695494,-7503.891674,-8575.876198
3596.849424,2335.394858,14127.224630,-8556.733618
3596.851987,-5972.485210,-10375.278794,-9303.294269
3596.854550,2947.957443,2890.529701,-8556.733618
3596.857113,1148.554848,3292.523898,-8786.444587
3596.859677,-2699.103893,-3809.373579,-9533.005238
3596.862240,-95.712904,4785.645200,-9035.298138
3596.864803,-918.843878,-210.568389,-8690.731683
3596.867366,-19.142581,3771.088418,-9092.725880
3596.869929,-497.707101,-1167.697429,-9035.298138
3596.872492,-708.275490,1110.269686,-8480.163294
3596.875056,76.570323,689.132909,-8920.442653
3596.877619,-842.273555,210.568389,-8729.016845
3596.880182,-1244.267752,76.570323,-8863.014910
3596.882745,-1148.554848,-1512.263883,-9131.011042
3596.885308,-401.994197,-2794.816797,-9207.581365
3596.887871,-1167.697429,-1627.119368,-8920.442653
3596.890434,76.570323,382.851616,-9092.725880
3596.892998,-880.558717,-1493.121302,-8786.444587
3596.895561,-1052.841944,1512.263883,-8346.165229
3596.898124,76.570323,-1990.828403,-8977.870395
3596.900687,-497.707101,-4823.930362,-9533.005238
3596.903250,-1761.117434,-57.427742,-9092.725880
3596.905813,-555.134843,-4077.369710,-9054.440718
3596.908377,574.277424,3349.951640,-8863.014910
3596.910940,-2622.533570,-1378.265818,-9035.298138
3596.913503,-708.275490,-1167.697429,-9207.581365
3596.916066,-574.277424,-3311.666478,-9035.298138
3596.918629,-421.136778,-823.130974,-9207.581365
3596.921194,-1110.269686,-899.701298,-9131.011042
3596.923760,-976.271621,-976.271621,-9169.296203
3596.926325,-1646.261949,-1588.834206,-9092.725880
3596.928890,-689.132909,-1282.552914,-9226.723946
3596.931455,-612.562586,-3235.096155,-9226.723946
3596.934020,-957.129040,287.138712,-8863.014910
3596.936586,-516.849682,-248.853550,-9131.011042
3596.939151,-210.568389,861.416136,-9437.292334
3596.941716,-1416.550979,1091.127106,-9188.438784
3596.944281,-497.707101,1205.982590,-9609.575562
3596.946846,-784.845813,-1933.400661,-9571.290400
3596.949412,-1148.554848,1359.123237,-9111.868461
3596.951977,-459.421939,2086.541307,-9341.579430
3596.954542,-516.849682,880.558717,-9111.868461
3596.957107,-535.992262,631.705166,-9188.438784
3596.959672,0.000000,-325.423874,-9341.579430
3596.962238,-1071.984525,-363.709035,-9667.003304
3596.964803,-1856.830338,-2603.390989,-9475.577496
3596.967368,1397.408398,3483.949706,-9150.153622
3596.969933,-1665.404530,172.283227,-9437.292334
3596.972498,-19.142581,-1071.984525,-9092.725880
3596.975063,842.273555,3809.373579,-9399.007173
3596.977629,-631.705166,-535.992262,-9188.438784
3596.980194,-1244.267752,3598.805190,-9054.440718
3596.982759,-650.847747,1799.402595,-9379.864592
3596.985324,-459.421939,1722.832272,-9360.722011
3596.987889,-1473.978722,306.281293,-9379.864592
3596.990455,-516.849682,57.427742,-9533.005238
3596.993020,-497.707101,631.705166,-9418.149754
3596.995585,-1665.404530,-976.271621,-8920.442653
3596.998150,-401.994197,3981.656806,-8614.161360
3597.000715,-76.570323,-2373.680019,-8977.870395
3597.003281,-1531.406464,-1263.410333,-8786.444587
3597.005846,-899.701298,-2813.959378,-9341.579430
3597.008411,229.710970,-19.142581,-9571.290400
3597.010976,-2220.539373,-1186.840010,-9188.438784
3597.013541,-631.705166,1454.836141,-9073.583299
3597.016107,-918.843878,-2431.107762,-8958.727814
3597.018672,-689.132909,-3369.094221,-9054.440718
3597.021237,-918.843878,1167.697429,-8977.870395
3597.023804,-880.558717,-2928.814862,-9188.438784
3597.026371,325.423874,-2947.957443,-8499.305875
3597.028938,153.140646,3924.229064,-8709.874264
3597.031505,-1435.693560,1129.412267,-9667.003304
3597.034072,-3005.385186,-4268.795518,-9513.862658
3597.036639,191.425808,-1397.408398,-8595.018779
3597.039206,-287.138712,918.843878,-8748.159426
3597.041773,-1014.556782,-1780.260014,-8824.729749
3597.044340,-535.992262,-421.136778,-8709.874264
3597.046907,-631.705166,-3101.098090,-8977.870395
3597.049473,-229.710970,76.570323,-8843.872330
3597.052040,-1741.974853,38.285162,-9054.440718
3597.054607,57.427742,746.560651,-9245.866526
3597.057174,-1416.550979,-631.705166,-8977.870395
3597.059741,-19.142581,3579.662610,-8652.446522
3597.062308,-38.285162,-363.709035,-8920.442653
3597.064875,-1014.556782,-631.705166,-8786.444587
3597.067442,363.709035,2354.537438,-8633.303941
3597.070009,76.570323,689.132909,-8882.157491
3597.072576,-842.273555,1971.685822,-8958.727814
3597.075143,-918.843878,1875.972918,-8863.014910
3597.077710,-516.849682,1473.978722,-9054.440718
3597.080277,-574.277424,-172.283227,-8997.012976
3597.082844,-631.705166,5245.067139,-8614.161360
3597.085411,-861.416136,-5781.059402,-8977.870395
3597.087978,1684.547110,2335.394858,-8575.876198
3597.090545,-1665.404530,5072.783912,-8805.587168
3597.093112,-4096.512291,-5704.489078,-9743.573627
3597.095679,344.566454,2163.111630,-9207.581365
3597.098245,-363.709035,325.423874,-8748.159426
3597.100812,-114.855485,3885.943902,-9016.155557
3597.103379,-1091.127106,-784.845813,-9111.868461
3597.105946,38.285162,1684.547110,-8729.016845
3597.108513,-267.996131,708.275490,-8843.872330
3597.111080,-267.996131,-1167.697429,-8843.872330
3597.113647,-1607.976787,1091.127106,-9169.296203
3597.116214,-650.847747,1895.115499,-9686.145885
3597.118781,-1014.556782,-2890.529701,-9188.438784
3597.121348,-1454.836141,-937.986459,-8709.874264
3597.123915,-306.281293,-2775.674216,-9418.149754
3597.126483,-459.421939,-1052.841944,-9322.436850
3597.129052,-1339.980656,-497.707101,-8729.016845
3597.131621,-803.988394,1359.123237,-9054.440718
3597.134189,-1244.267752,-2967.100024,-9418.149754
3597.136758,-1186.840010,-2871.387120,-9188.438784
3597.139326,-669.990328,-2335.394858,-9590.432981
3597.141895,-382.851616,-4287.938099,-9322.436850
3597.144463,-574.277424,4153.940034,-8767.302006
3597.147032,-995.414202,-1607.976787,-9131.011042
3597.149600,-2009.970984,-1569.691626,-9399.007173
3597.152169,-2029.113565,-4996.213589,-9341.579430
3597.154737,-421.136778,1033.699363,-9265.009107
3597.157306,-803.988394,-2411.965181,-9284.151688
3597.159874,-1493.121302,-363.709035,-8824.729749
3597.162443,-918.843878,-516.849682,-9418.149754
3597.165011,-1091.127106,-3962.514226,-9379.864592
3597.167580,-1397.408398,-746.560651,-8977.870395
3597.170149,-57.427742,-19.142581,-9035.298138
3597.172717,-593.420005,1205.982590,-9054.440718
3597.175286,-976.271621,2584.248408,-9284.151688
3597.177854,-612.562586,1110.269686,-9303.294269
3597.180423,-727.418070,-593.420005,-9571.290400
3597.182991,-1837.687757,-574.277424,-9494.720077
3597.185560,-478.564520,1473.978722,-9590.432981
3597.188128,-803.988394,957.129040,-9533.005238
3597.190697,-593.420005,2163.111630,-8920.442653
3597.193265,-631.705166,1646.261949,-8939.585234
3597.195834,593.420005,-727.418070,-8997.012976
3597.198402,-880.558717,1071.984525,-8977.870395
3597.200971,-995.414202,5340.780043,-9475.577496
3597.203540,-1607.976787,-2239.681954,-9456.434915
3597.206108,-593.420005,6604.190376,-9092.725880
3597.208677,-2335.394858,2813.959378,-8729.016845
3597.211245,-1971.685822,-1569.691626,-9303.294269
3597.213814,-325.423874,3656.232933,-9092.725880
3597.216382,-669.990328,1014.556782,-9054.440718
3597.218951,-133.998066,4632.504554,-8882.157491
3597.221519,-1359.123237,-1933.400661,-9245.866526
3597.224088,-344.566454,2545.963246,-9303.294269
3597.226656,-497.707101,-1684.547110,-9667.003304
3597.229226,-650.847747,-1033.699363,-8767.302006
3597.231795,-574.277424,4134.797453,-8461.020714
3597.234365,-38.285162,-2220.539373,-8863.014910
3597.236934,-1512.263883,-1148.554848,-8671.589102
3597.239503,-535.992262,-3637.090352,-8824.729749
3597.242073,459.421939,57.427742,-9265.009107
3597.244642,-1473.978722,-1225.125171,-8882.157491
3597.247212,-1014.556782,1052.841944,-8843.872330
3597.249781,-784.845813,-861.416136,-9035.298138
3597.252351,-861.416136,-1320.838075,-9035.298138
3597.254920,-325.423874,-19.142581,-8518.448456
3597.257489,-976.271621,4019.941968,-8997.012976
3597.260059,-2124.826469,-5800.201982,-8863.014910
3597.262628,803.988394,-689.132909,-8422.735552
3597.265198,478.564520,1512.263883,-8920.442653
3597.267767,-2679.961312,-3369.094221,-9169.296203
3597.270336,-1665.404530,-727.418070,-8709.874264
3597.272906,287.138712,-57.427742,-9188.438784
3597.275475,-1493.121302,-2182.254211,-8997.012976
3597.278045,-937.986459,708.275490,-8480.163294
3597.280614,-267.996131,-2756.531635,-8977.870395
3597.283184,-918.843878,-1359.123237,-8939.585234
3597.285753,-440.279358,440.279358,-8748.159426
3597.288322,-382.851616,650.847747,-9111.868461
3597.290892,-784.845813,1856.830338,-9092.725880
3597.293461,-478.564520,210.568389,-8709.874264
3597.296031,-76.570323,937.986459,-9016.155557
3597.298600,-976.271621,-1627.119368,-8997.012976
3597.301169,-114.855485,2392.822600,-8403.592971
3597.303739,248.853550,2048.256146,-8786.444587
3597.306308,-765.703232,1722.832272,-8882.157491
3597.308878,-1550.549045,382.851616,-9226.723946
3597.311447,210.568389,1990.828403,-9322.436850
3597.314017,-1301.695494,1780.260014,-9245.866526
3597.316586,-1895.115499,-6853.043926,-8863.014910
3597.319155,3943.371645,11542.976222,-8958.727814
3597.321725,-5742.774240,-7197.610381,-9188.438784
3597.324294,-574.277424,2967.100024,-8441.878133
3597.326864,3388.236802,8997.012976,-9590.432981
3597.329433,-1703.689691,-6642.475538,-10030.712339
3597.332003,-1378.265818,6489.334891,-9188.438784
3597.334574,-708.275490,-1378.265818,-9169.296203
3597.337144,-344.566454,3024.527766,-9054.440718
3597.339715,-363.709035,-1129.412267,-8786.444587
3597.342285,-650.847747,-650.847747,-9226.723946
3597.344856,-784.845813,-401.994197,-8939.585234
3597.347426,-1378.265818,38.285162,-9207.581365
3597.349996,-1148.554848,133.998066,-9207.581365
3597.352567,-1167.697429,-3866.801322,-9322.436850
3597.355137,-1320.838075,-1359.123237,-9379.864592
3597.357708,-57.427742,-727.418070,-9399.007173
3597.360278,-842.273555,-1607.976787,-9111.868461
3597.362849,-1071.984525,1454.836141,-8499.305875
3597.365419,-937.986459,-1378.265818,-9245.866526
3597.367989,76.570323,-440.279358,-9475.577496
3597.370560,-1684.547110,689.132909,-9131.011042
3597.373130,-2029.113565,-1952.543242,-9418.149754
3597.375701,-76.570323,-382.851616,-9399.007173
3597.378271,-1052.841944,-114.855485,-8556.733618
3597.380842,153.140646,306.281293,-8939.585234
3597.383412,-1933.400661,-4287.938099,-9341.579430
3597.385982,-803.988394,-1359.123237,-9169.296203
3597.388553,-1129.412267,1550.549045,-9207.581365
3597.391123,-765.703232,-1627.119368,-9418.149754
3597.393694,-1837.687757,-1397.408398,-9131.011042
3597.396264,-708.275490,-976.271621,-9571.290400
3597.398835,-708.275490,-2890.529701,-9494.720077
3597.401405,-1205.982590,1665.404530,-9035.298138
3597.403975,-95.712904,1225.125171,-9207.581365
3597.406546,-57.427742,1397.408398,-9169.296203
3597.409116,-1320.838075,287.138712,-9188.438784
3597.411687,-650.847747,-784.845813,-9533.005238
3597.414257,-459.421939,421.136778,-9437.292334
3597.416828,-1148.554848,2105.683888,-9131.011042
3597.419398,-229.710970,3369.094221,-9456.434915
3597.421968,-382.851616,38.285162,-9437.292334
3597.424539,-669.990328,-2756.531635,-8843.872330
3597.427109,-133.998066,-842.273555,-8920.442653
3597.429680,880.558717,4632.504554,-9131.011042
3597.432250,-2813.959378,57.427742,-9226.723946
3597.434821,57.427742,7293.323285,-9111.868461
3597.437392,-2067.398726,267.996131,-9628.718142
3597.439962,-1493.121302,-574.277424,-9418.149754
3597.442533,-344.566454,1301.695494,-9724.431046
3597.445104,-421.136778,516.849682,-9073.583299
3597.447675,-133.998066,3637.090352,-8939.585234
3597.450246,-1033.699363,-133.998066,-8958.727814
3597.452816,-76.570323,-287.138712,-9360.722011
3597.455387,-1761.117434,-631.705166,-9360.722011
3597.457958,-287.138712,1167.697429,-9360.722011
3597.460529,-535.992262,2239.681954,-9494.720077
3597.463100,-1186.840010,-2565.105827,-8729.016845
3597.465670,-631.705166,-1052.841944,-8365.307810
3597.468241,-172.283227,-1837.687757,-9360.722011
3597.470812,-1225.125171,-1282.552914,-9150.153622
3597.473383,-1110.269686,784.845813,-8824.729749
3597.475954,-38.285162,497.707101,-9207.581365
3597.478524,-2354.537438,-1741.974853,-9188.438784
3597.481095,-306.281293,-1971.685822,-9245.866526
3597.483666,-669.990328,-2029.113565,-9207.581365
3597.486237,-478.564520,-3388.236802,-8709.874264
3597.488807,899.701298,5819.344563,-8480.163294
3597.491378,-2660.818731,-1684.547110,-9284.151688
3597.493949,-1550.549045,-4287.938099,-8882.157491
3597.496520,937.986459,2450.250342,-8901.300072
3597.499091,-1186.840010,-4192.225195,-9494.720077
3597.501661,-1110.269686,-1473.978722,-8690.731683
3597.504232,-1244.267752,-344.566454,-8575.876198
3597.506803,133.998066,-1933.400661,-8786.444587
3597.509374,-1741.974853,-2469.392923,-8843.872330
3597.511945,229.710970,325.423874,-8958.727814
3597.514515,-516.849682,1091.127106,-8920.442653
3597.517086,-765.703232,1435.693560,-8843.872330
3597.519657,-287.138712,2986.242605,-8977.870395
3597.522228,-363.709035,-210.568389,-9150.153622
3597.524798,-631.705166,-1416.550979,-9016.155557
3597.527369,-421.136778,1856.830338,-8575.876198
3597.529940,229.710970,2718.246474,-8901.300072
3597.532511,-957.129040,1435.693560,-8882.157491
3597.535082,-38.285162,1627.119368,-8748.159426
3597.537653,172.283227,1148.554848,-8805.587168
3597.540224,-1014.556782,2967.100024,-9054.440718
3597.542796,-1856.830338,4460.221326,-9016.155557
3597.545367,612.562586,2852.244539,-8882.157491
3597.547939,-2009.970984,4517.649069,-9226.723946
3597.550510,-2660.818731,-4804.787781,-8748.159426
3597.553082,1512.263883,4747.360038,-8997.012976
3597.555653,-1531.406464,-3809.373579,-9245.866526
3597.558224,38.285162,6431.907149,-8269.594906
3597.560796,-574.277424,2335.394858,-9418.149754
3597.563367,-1033.699363,-1799.402595,-9188.438784
3597.565939,-1052.841944,1148.554848,-8901.300072
3597.568510,-497.707101,-2507.678085,-9265.009107
3597.571082,-478.564520,3024.527766,-8958.727814
3597.573653,-880.558717,-631.705166,-8556.733618
3597.576224,-631.705166,497.707101,-8671.589102
3597.578796,-1493.121302,-5168.496816,-9743.573627
3597.581367,-344.566454,95.712904,-9226.723946
3597.583939,-803.988394,-937.986459,-9379.864592
3597.586510,-1071.984525,-1722.832272,-8939.585234
3597.589082,-937.986459,765.703232,-8537.591037
3597.591653,-267.996131,-3790.230998,-8997.012976
3597.594224,-823.130974,-555.134843,-9131.011042
3597.596796,-1416.550979,-2450.250342,-8537.591037
3597.599367,267.996131,478.564520,-9284.151688
3597.601939,-631.705166,1895.115499,-9341.579430
3597.604510,-2450.250342,-1129.412267,-8920.442653
3597.607081,-287.138712,-3407.379382,-9073.583299
3597.609653,0.000000,-2603.390989,-9150.153622
3597.612224,-1512.263883,-516.849682,-8671.589102
3597.614796,-401.994197,937.986459,-8863.014910
3597.617367,-708.275490,-3407.379382,-8939.585234
3597.619939,-1416.550979,-880.558717,-9131.011042
3597.622510,-574.277424,-1512.263883,-9628.718142
3597.625081,-1091.127106,-421.136778,-9437.292334
3597.627653,-880.558717,1875.972918,-9111.868461
3597.630224,784.845813,4594.219392,-9131.011042
3597.632796,-2143.969050,-2009.970984,-9188.438784
3597.635367,-57.427742,-114.855485,-8786.444587
3597.637939,-306.281293,210.568389,-9169.296203
3597.640510,-459.421939,1263.410333,-9590.432981
3597.643081,-1244.267752,3560.520029,-9092.725880
3597.645653,-325.423874,3081.955509,-9456.434915
3597.648224,-1033.699363,-2163.111630,-9686.145885
3597.650795,-1359.123237,-3483.949706,-9379.864592
3597.653367,1435.693560,3311.666478,-9169.296203
3597.655938,-937.986459,516.849682,-9150.153622
3597.658510,-401.994197,459.421939,-8901.300072
3597.661081,-1186.840010,3081.955509,-9150.153622
3597.663652,-210.568389,-2335.394858,-9590.432981
3597.666224,-1225.125171,3943.371645,-9016.155557
3597.668795,-401.994197,2143.969050,-9571.290400
3597.671366,-1244.267752,1627.119368,-9571.290400
3597.673938,-880.558717,382.851616,-9035.298138
3597.676509,-689.132909,516.849682,-9284.151688
3597.679081,-880.558717,-1359.123237,-9341.579430
3597.681652,-631.705166,2622.533570,-9207.581365
3597.684223,-803.988394,-38.285162,-9303.294269
3597.686795,-1627.119368,-746.560651,-9131.011042
3597.689366,-1607.976787,-3962.514226,-9073.583299
3597.691937,38.285162,-229.710970,-9628.718142
3597.694509,-1416.550979,-2526.820666,-9667.003304
3597.697080,-1454.836141,574.277424,-8652.446522
3597.699652,-1473.978722,631.705166,-8786.444587
3597.702223,-210.568389,-3866.801322,-9303.294269
3597.704794,-1799.402595,-3943.371645,-9284.151688
3597.707366,-57.427742,-1052.841944,-9188.438784
3597.709937,-38.285162,1627.119368,-9226.723946
3597.712508,-2392.822600,-6680.760699,-9092.725880
3597.715080,1473.978722,2813.959378,-9188.438784
3597.717651,957.129040,-784.845813,-8767.302006
3597.720223,-1435.693560,-2277.967115,-8729.016845
3597.722794,-669.990328,1052.841944,-8901.300072
3597.725365,-918.843878,-3043.670347,-9341.579430
3597.727937,-1110.269686,-172.283227,-9131.011042
3597.730508,-1837.687757,-2277.967115,-9379.864592
3597.733079,114.855485,-153.140646,-9284.151688
3597.735651,-1761.117434,-669.990328,-8824.729749
3597.738222,-19.142581,4498.506488,-8690.731683
3597.740794,248.853550,995.414202,-8920.442653
3597.743365,-1225.125171,-248.853550,-8920.442653
3597.745936,-593.420005,306.281293,-9092.725880
3597.748508,-325.423874,76.570323,-9284.151688
3597.751079,-899.701298,3158.525832,-9284.151688
3597.753651,-842.273555,2967.100024,-9303.294269
3597.756222,210.568389,-363.709035,-8767.302006
3597.758794,-1091.127106,-363.709035,-9054.440718
3597.761365,-708.275490,-3292.523898,-8939.585234
3597.763937,2354.537438,4555.934230,-8863.014910
3597.766508,-1301.695494,5206.781978,-8729.016845
3597.769080,-2641.676150,2143.969050,-8958.727814
3597.771651,593.420005,-976.271621,-9303.294269
3597.774222,-95.712904,-899.701298,-9322.436850
3597.776794,-708.275490,1703.689691,-8537.591037
3597.779365,287.138712,4307.080680,-8690.731683
3597.781937,-765.703232,-803.988394,-8939.585234
3597.784508,-727.418070,2048.256146,-8614.161360
3597.787080,210.568389,-2794.816797,-9150.153622
3597.789651,-1473.978722,918.843878,-8939.585234
3597.792223,-76.570323,2009.970984,-8997.012976
3597.794794,-76.570323,1033.699363,-8843.872330
3597.797366,-1684.547110,-4000.799387,-8920.442653
3597.799937,-421.136778,-1473.978722,-8690.731683
3597.802508,-76.570323,-2182.254211,-9111.868461
3597.805080,-708.275490,-1837.687757,-8843.872330
3597.807651,-689.132909,1933.400661,-8461.020714
3597.810223,-440.279358,-1531.406464,-8805.587168
3597.812794,-1033.699363,-1186.840010,-9150.153622
3597.815366,-2163.111630,-229.710970,-9188.438784
3597.817937,593.420005,-4134.797453,-8786.444587
3597.820509,401.994197,4039.084549,-8939.585234
3597.823080,-2622.533570,-9265.009107,-8480.163294
3597.825652,2469.392923,6872.186507,-8767.302006
3597.828223,-2450.250342,-7140.182638,-8901.300072
3597.830795,-401.994197,1971.685822,-8920.442653
3597.833366,-880.558717,1722.832272,-9379.864592
3597.835937,-976.271621,-5072.783912,-8767.302006
3597.838509,76.570323,2469.392923,-8403.592971
3597.841080,-287.138712,-2239.681954,-9131.011042
3597.843652,-842.273555,-76.570323,-8939.585234
3597.846225,-421.136778,1071.984525,-8748.159426
3597.848797,57.427742,3407.379382,-9073.583299
3597.851369,-650.847747,-1014.556782,-8824.729749
3597.853940,-1703.689691,-248.853550,-9265.009107
3597.856512,-612.562586,1071.984525,-9513.862658
3597.859084,-440.279358,1014.556782,-9399.007173
3597.861656,-612.562586,3330.809059,-8920.442653
3597.864228,421.136778,1895.115499,-9111.868461
3597.866799,-1167.697429,153.140646,-8977.870395
3597.869371,-306.281293,3349.951640,-8671.589102
3597.871943,-1569.691626,1263.410333,-9456.434915
3597.874515,-976.271621,-1225.125171,-9437.292334
3597.877086,-114.855485,1282.552914,-8977.870395
3597.879658,-1052.841944,3751.945837,-9399.007173
3597.882230,-382.851616,248.853550,-9379.864592
3597.884802,-669.990328,1799.402595,-8824.729749
3597.887373,421.136778,2086.541307,-9379.864592
3597.889945,-1052.841944,1282.552914,-9169.296203
3597.892517,-2239.681954,-995.414202,-9131.011042
3597.895089,-172.283227,1761.117434,-9360.722011
3597.897661,-1244.267752,-1493.121302,-9513.862658
3597.900232,-803.988394,1914.258080,-9188.438784
3597.902804,-1033.699363,-1493.121302,-9245.866526
3597.905376,-689.132909,-1684.547110,-9016.155557
3597.907948,-1627.119368,-2354.537438,-9016.155557
3597.910519,-842.273555,-114.855485,-9169.296203
3597.913091,-823.130974,-1933.400661,-9245.866526
3597.915663,-1148.554848,95.712904,-9150.153622
3597.918235,-976.271621,-1110.269686,-9341.579430
3597.920807,-631.705166,-4039.084549,-9513.862658
3597.923378,-1129.412267,-4211.367776,-9188.438784
3597.925950,-229.710970,2679.961312,-9322.436850
3597.928522,-995.414202,-1914.258080,-9456.434915
3597.931094,-995.414202,-153.140646,-8690.731683
3597.933665,-1301.695494,-1110.269686,-9245.866526
3597.936237,-918.843878,-1646.261949,-9418.149754
3597.938809,-1493.121302,-2029.113565,-9169.296203
3597.941381,-1033.699363,267.996131,-9207.581365
3597.943952,-995.414202,-2794.816797,-9533.005238
3597.946524,-1607.976787,-2009.970984,-9131.011042
3597.949096,-535.992262,1588.834206,-8633.303941
3597.951667,76.570323,497.707101,-9111.868461
3597.954239,-1263.410333,3407.379382,-9016.155557
3597.956810,-363.709035,459.421939,-9150.153622
3597.959382,-689.132909,842.273555,-9341.579430
3597.961953,-1263.410333,-1780.260014,-9245.866526
3597.964525,-555.134843,2507.678085,-9379.864592
3597.967096,-842.273555,1033.699363,-9590.432981
3597.969668,-306.281293,1473.978722,-8843.872330
3597.972239,-535.992262,3139.383251,-8729.016845
3597.974811,210.568389,-325.423874,-9054.440718
3597.977382,-1167.697429,1378.265818,-9226.723946
3597.979954,-1627.119368,19.142581,-9169.296203
3597.982525,708.275490,6317.051664,-9245.866526
3597.985097,-3043.670347,-133.998066,-9150.153622
3597.987668,-765.703232,2163.111630,-9284.151688
3597.990240,382.851616,3330.809059,-8958.727814
3597.992811,-669.990328,-746.560651,-9016.155557
3597.995383,0.000000,5876.772306,-8633.303941
3597.997955,-555.134843,-689.132909,-8920.442653
3598.000526,-593.420005,1454.836141,-8920.442653
3598.003098,-1895.115499,-1952.543242,-9188.438784
3598.005669,497.707101,3215.953574,-9533.005238
3598.008241,-708.275490,-1550.549045,-8939.585234
3598.010812,-1033.699363,-95.712904,-8327.022648
3598.013384,-38.285162,-2699.103893,-8882.157491
3598.015955,-880.558717,-1856.830338,-8997.012976
3598.018527,-1205.982590,-459.421939,-8786.444587
3598.021098,-76.570323,-325.423874,-8939.585234
3598.023670,-1761.117434,823.130974,-8920.442653
3598.026241,-1014.556782,-1263.410333,-9226.723946
3598.028813,-1359.123237,1990.828403,-9303.294269
3598.031384,-1818.545176,-6776.473603,-9073.583299
3598.033956,880.558717,1225.125171,-8250.452325
3598.036527,19.142581,3694.518094,-8805.587168
3598.039099,-2679.961312,-6355.336826,-8882.157491
3598.041670,382.851616,2584.248408,-8633.303941
3598.044242,-727.418070,-4364.508422,-9016.155557
3598.046813,-1493.121302,-2565.105827,-9150.153622
3598.049385,-995.414202,-57.427742,-8863.014910
3598.051956,-363.709035,-1933.400661,-8977.870395
3598.054528,-555.134843,-421.136778,-8920.442653
3598.057099,-516.849682,842.273555,-8614.161360
3598.059671,-114.855485,1990.828403,-8901.300072
3598.062242,-57.427742,516.849682,-9111.868461
3598.064814,-727.418070,2354.537438,-8671.589102
3598.067385,-516.849682,-918.843878,-9322.436850
3598.069957,-727.418070,382.851616,-9111.868461
3598.072528,-440.279358,2699.103893,-8767.302006
3598.075100,593.420005,1837.687757,-8977.870395
3598.077672,-267.996131,-153.140646,-8997.012976
3598.080243,-746.560651,-689.132909,-8575.876198
3598.082815,574.277424,-4096.512291,-8671.589102
3598.085386,1129.412267,3522.234867,-9456.434915
3598.087958,-2335.394858,-3407.379382,-9073.583299
3598.090529,1780.260014,5302.494882,-8977.870395
3598.093101,-1339.980656,-2813.959378,-9437.292334
3598.095672,-516.849682,4000.799387,-9092.725880
3598.098244,210.568389,1607.976787,-9494.720077
3598.100815,-363.709035,-631.705166,-9035.298138
3598.103387,-248.853550,4881.358104,-8384.450390
3598.105958,-861.416136,-2986.242605,-9456.434915
3598.108530,19.142581,267.996131,-9341.579430
3598.111101,-1665.404530,153.140646,-9207.581365
3598.113673,459.421939,1971.685822,-9265.009107
3598.116244,-2584.248408,-3598.805190,-8997.012976
3598.118816,-191.425808,-516.849682,-8729.016845
3598.121387,-1110.269686,-2124.826469,-9437.292334
3598.123959,-746.560651,-2354.537438,-9399.007173
3598.126530,-1569.691626,19.142581,-9169.296203
3598.129102,-1359.123237,1646.261949,-9245.866526
3598.131673,-612.562586,-4249.652938,-9552.147819
3598.134245,-1473.978722,-4019.941968,-9054.440718
3598.136816,1205.982590,7733.602643,-9226.723946
3598.139388,-4632.504554,-5398.207786,-9858.429112
3598.141959,1052.841944,-6240.481341,-8441.878133
3598.144531,3503.092286,7197.610381,-8882.157491
3598.147102,-2469.392923,-6585.047795,-9590.432981
3598.149674,-2871.387120,-1646.261949,-9647.860723
3598.152245,-669.990328,-918.843878,-9513.862658
3598.154816,363.709035,-3369.094221,-9169.296203
3598.157388,-1225.125171,1875.972918,-9054.440718
3598.159959,-689.132909,-2105.683888,-9092.725880
3598.162530,-1225.125171,689.132909,-9092.725880
3598.165101,-1378.265818,765.703232,-9073.583299
3598.167672,191.425808,2641.676150,-9303.294269
3598.170243,-631.705166,-535.992262,-9513.862658
3598.172814,-1780.260014,95.712904,-9188.438784
3598.175385,-593.420005,1052.841944,-9475.577496
3598.177956,-650.847747,2009.970984,-9533.005238
3598.180527,-1186.840010,1646.261949,-9303.294269
3598.183098,-248.853550,1129.412267,-8958.727814
3598.185669,-669.990328,-1550.549045,-9169.296203
3598.188240,19.142581,363.709035,-8843.872330
3598.190811,-114.855485,2852.244539,-9150.153622
3598.193382,-1091.127106,2852.244539,-9705.288466
3598.195953,-1875.972918,535.992262,-9399.007173
3598.198524,-421.136778,2928.814862,-9552.147819
3598.201095,-1339.980656,-1052.841944,-9743.573627
3598.203666,-574.277424,937.986459,-8958.727814
3598.206237,-401.994197,3369.094221,-8709.874264
3598.208808,229.710970,-650.847747,-8786.444587
3598.211379,-1339.980656,765.703232,-8786.444587
3598.213950,-842.273555,-401.994197,-9303.294269
3598.216521,-631.705166,1856.830338,-9513.862658
3598.219092,-957.129040,-2316.252277,-9111.868461
3598.221663,-382.851616,306.281293,-8327.022648
3598.224234,-937.986459,-2584.248408,-9054.440718
3598.226805,-669.990328,-1971.685822,-8901.300072
3598.229376,-1225.125171,-382.851616,-8786.444587
3598.231947,650.847747,-401.994197,-9016.155557
3598.234518,-2086.541307,-3292.523898,-9054.440718
3598.237089,-669.990328,-344.566454,-9456.434915
3598.239660,-1397.408398,-4900.500685,-9284.151688
3598.242231,267.996131,-899.701298,-8901.300072
3598.244802,-650.847747,-3254.238736,-8461.020714
3598.247373,574.277424,-401.994197,-8709.874264
3598.249944,-669.990328,-1780.260014,-8863.014910
3598.252515,-899.701298,-516.849682,-8556.733618
3598.255086,-421.136778,-1646.261949,-9054.440718
3598.257657,-1473.978722,-2431.107762,-9188.438784
3598.260228,-191.425808,1493.121302,-8767.302006
3598.262798,-708.275490,-1933.400661,-8939.585234
3598.265369,-631.705166,-401.994197,-8729.016845
3598.267940,-574.277424,1091.127106,-8518.448456
3598.270511,899.701298,4287.938099,-9054.440718
3598.273081,-1837.687757,-1856.830338,-9092.725880
3598.275652,95.712904,1952.543242,-8690.731683
3598.278223,-555.134843,535.992262,-8997.012976
3598.280794,-555.134843,-57.427742,-9188.438784
3598.283364,210.568389,4402.793584,-8575.876198
3598.285935,57.427742,2086.541307,-9073.583299
3598.288506,-689.132909,842.273555,-8958.727814
3598.291077,-1761.117434,1014.556782,-8690.731683
3598.293648,421.136778,-1971.685822,-8920.442653
3598.296218,-267.996131,7006.184573,-8901.300072
3598.298789,-2124.826469,-363.709035,-8863.014910
3598.301360,-957.129040,1071.984525,-9226.723946
3598.303931,-153.140646,1071.984525,-9322.436850
3598.306501,-95.712904,-19.142581,-8843.872330
3598.309072,153.140646,4728.217458,-9169.296203
3598.311643,-1205.982590,-2641.676150,-8977.870395
3598.314214,38.285162,3751.945837,-8307.880067
3598.316784,-918.843878,-4555.934230,-8882.157491
3598.319355,401.994197,1148.554848,-9571.290400
3598.321926,-1397.408398,-861.416136,-8843.872330
3598.324497,-1110.269686,-363.709035,-9054.440718
3598.327067,-1339.980656,-3675.375514,-9399.007173
3598.329638,-708.275490,-1473.978722,-8863.014910
3598.332209,-612.562586,-2297.109696,-9092.725880
3598.334780,-535.992262,-76.570323,-8805.587168
3598.337350,-1512.263883,1703.689691,-8480.163294
3598.339900,-459.421939,-2297.109696,-9456.434915
3598.342450,57.427742,-1435.693560,-9456.434915
3598.345000,-2947.957443,880.558717,-9169.296203
3598.347550,-1933.400661,-2411.965181,-9418.149754
3598.350100,-57.427742,-1320.838075,-9437.292334
3598.352650,-363.709035,76.570323,-8767.302006
3598.355199,-1014.556782,-3388.236802,-8748.159426
3598.357749,-210.568389,-1780.260014,-9475.577496
3598.360299,-1091.127106,-2986.242605,-9150.153622
3598.362849,38.285162,19.142581,-9131.011042
3598.365399,-1416.550979,-1359.123237,-9456.434915
3598.367949,-1225.125171,765.703232,-9092.725880
3598.370498,-765.703232,995.414202,-9188.438784
3598.373048,382.851616,803.988394,-9265.009107
3598.375598,-1359.123237,401.994197,-8939.585234
3598.378148,-803.988394,172.283227,-9322.436850
3598.380698,-306.281293,1416.550979,-9169.296203
3598.383248,-1225.125171,2239.681954,-9226.723946
3598.385798,-248.853550,3024.527766,-9475.577496
3598.388347,-497.707101,-1148.554848,-9552.147819
3598.390897,-1110.269686,746.560651,-9322.436850
3598.393447,-1263.410333,-4747.360038,-9437.292334
3598.395997,1607.976787,4479.363907,-9341.579430
3598.398547,-3713.660675,-5532.205851,-9054.440718
3598.401097,708.275490,5417.350366,-9150.153622
3598.403646,382.851616,1339.980656,-9379.864592
3598.406196,-593.420005,-631.705166,-9303.294269
3598.408746,-555.134843,4173.082614,-9475.577496
3598.411296,-689.132909,-842.273555,-9552.147819
3598.413846,-1263.410333,3541.377448,-9111.868461
3598.416396,-1014.556782,-1339.980656,-8518.448456
3598.418946,421.136778,574.277424,-9188.438784
3598.421495,-1569.691626,-325.423874,-9188.438784
3598.424045,-440.279358,1186.840010,-8920.442653
3598.426595,-1244.267752,-1837.687757,-9131.011042
3598.429145,-2029.113565,-1914.258080,-9379.864592
3598.431695,-478.564520,-1952.543242,-9437.292334
3598.434245,-535.992262,-2048.256146,-9303.294269
3598.436795,-937.986459,-153.140646,-8805.587168
3598.439344,-229.710970,-555.134843,-8575.876198
3598.441897,95.712904,-1684.547110,-8958.727814
3598.444449,-1780.260014,3311.666478,-9226.723946
3598.447002,-4766.502619,-5608.776174,-9418.149754
3598.449554,3694.518094,-1550.549045,-9016.155557
3598.452107,-1014.556782,3196.810994,-9150.153622
3598.454660,-3866.801322,-4345.365842,-8824.729749
3598.457212,191.425808,-861.416136,-9265.009107
3598.459765,-1033.699363,-3828.516160,-9016.155557
3598.462317,19.142581,114.855485,-8556.733618
3598.464870,-899.701298,248.853550,-9150.153622
3598.467422,-593.420005,-2124.826469,-9111.868461
3598.469975,-1167.697429,3081.955509,-8997.012976
3598.472527,-153.140646,-593.420005,-9322.436850
3598.475080,344.566454,267.996131,-8882.157491
3598.477632,-803.988394,669.990328,-8556.733618
3598.480185,19.142581,650.847747,-8805.587168
3598.482737,-1263.410333,669.990328,-8939.585234
3598.485290,-535.992262,4077.369710,-8805.587168
3598.487842,382.851616,1339.980656,-8977.870395
3598.490395,-535.992262,2086.541307,-9073.583299
3598.492948,-1014.556782,3981.656806,-8882.157491
3598.495500,-765.703232,-1435.693560,-9092.725880
3598.498053,-727.418070,-497.707101,-8633.303941
3598.500605,669.990328,1263.410333,-8461.020714
3598.503158,401.994197,3885.943902,-8748.159426
3598.505710,-784.845813,-344.566454,-8939.585234
3598.508263,689.132909,3598.805190,-8633.303941
3598.510815,-248.853550,306.281293,-9265.009107
3598.513368,-650.847747,-95.712904,-9131.011042
3598.515920,-650.847747,1627.119368,-8671.589102
3598.518473,-689.132909,-784.845813,-9054.440718
3598.521025,-497.707101,287.138712,-8997.012976
3598.523578,-210.568389,-516.849682,-8461.020714
3598.526130,-861.416136,-650.847747,-8633.303941
3598.528683,-401.994197,-2890.529701,-8863.014910
3598.531235,-1473.978722,-1225.125171,-9073.583299
3598.533788,-918.843878,-2392.822600,-9054.440718
3598.536341,-516.849682,-976.271621,-9016.155557
3598.538893,-1550.549045,-1148.554848,-8882.157491
3598.541446,-191.425808,1512.263883,-9322.436850
3598.544001,-1512.263883,-5647.061336,-8920.442653
3598.546556,210.568389,1454.836141,-8346.165229
3598.549111,-287.138712,-4039.084549,-8748.159426
3598.551666,-842.273555,-2029.113565,-9341.579430
3598.554221,-631.705166,1627.119368,-8901.300072
3598.556776,-440.279358,-3388.236802,-9169.296203
3598.559332,-937.986459,-2182.254211,-9073.583299
3598.561887,-937.986459,-2009.970984,-8709.874264
3598.564442,-478.564520,-593.420005,-9111.868461
3598.566997,-650.847747,-2603.390989,-9016.155557
3598.569552,-784.845813,1627.119368,-9169.296203
3598.572107,-1014.556782,2163.111630,-9475.577496
3598.574662,363.709035,-535.992262,-9437.292334
3598.577218,-1397.408398,133.998066,-9207.581365
3598.579773,-555.134843,-229.710970,-9322.436850
3598.582328,-918.843878,746.560651,-9092.725880
3598.584883,-306.281293,2679.961312,-8748.159426
3598.587438,210.568389,3637.090352,-9169.296203
3598.589993,-248.853550,229.710970,-9475.577496
3598.592548,-1856.830338,-2584.248408,-9494.720077
3598.595104,516.849682,957.129040,-9303.294269
3598.597659,-765.703232,1378.265818,-9379.864592
3598.600214,-2086.541307,-2488.535504,-9379.864592
3598.602769,1569.691626,3924.229064,-9245.866526
3598.605324,-1014.556782,-2679.961312,-9571.290400
3598.607879,-421.136778,4383.651003,-8882.157491
3598.610434,-401.994197,3235.096155,-9073.583299
3598.612990,-210.568389,-248.853550,-9609.575562
3598.615545,-1818.545176,1435.693560,-9111.868461
3598.618100,-1014.556782,-2450.250342,-9399.007173
3598.620655,-555.134843,1780.260014,-9590.432981
3598.623210,-1052.841944,-1588.834206,-9341.579430
3598.625765,-1359.123237,229.710970,-9169.296203
3598.628320,-823.130974,-2431.107762,-9150.153622
3598.630876,-689.132909,-1875.972918,-8958.727814
3598.633431,-1186.840010,-1493.121302,-9035.298138
3598.635986,57.427742,-516.849682,-9265.009107
3598.638541,-2182.254211,-2335.394858,-9092.725880
3598.641096,-612.562586,-2048.256146,-9533.005238
3598.643651,229.710970,-3464.807125,-9341.579430
3598.646208,-1167.697429,2565.105827,-8901.300072
3598.648765,-1148.554848,4287.938099,-8901.300072
3598.651322,-1971.685822,-5283.352301,-9016.155557
3598.653879,-267.996131,1627.119368,-9092.725880
3598.656436,-1856.830338,-2565.105827,-8863.014910
3598.658993,-421.136778,-2641.676150,-9188.438784
3598.661550,-1052.841944,-3541.377448,-9169.296203
3598.664107,-478.564520,-76.570323,-9035.298138
3598.666663,421.136778,2258.824534,-8843.872330
3598.669220,-1378.265818,-803.988394,-8805.587168
3598.671777,-880.558717,6202.196179,-8824.729749
3598.674334,-114.855485,-2545.963246,-9322.436850
3598.676891,-746.560651,995.414202,-9035.298138
3598.679448,-957.129040,612.562586,-9092.725880
3598.682005,-76.570323,2852.244539,-9207.581365
3598.684562,-1837.687757,2603.390989,-9265.009107
3598.687119,-76.570323,555.134843,-8729.016845
3598.689676,-459.421939,1014.556782,-9092.725880
3598.692233,-1033.699363,-5857.629725,-8977.870395
3598.694790,1703.689691,5053.641331,-8250.452325
3598.697346,19.142581,0.000000,-8652.446522
3598.699903,57.427742,3426.521963,-8709.874264
3598.702460,-918.843878,172.283227,-9226.723946
3598.705017,535.992262,3235.096155,-9494.720077
3598.707574,-1225.125171,1397.408398,-9111.868461
3598.710131,172.283227,2526.820666,-8575.876198
3598.712688,-612.562586,2488.535504,-8824.729749
3598.715245,-746.560651,-3407.379382,-8767.302006
3598.717802,-842.273555,2737.389054,-8499.305875
3598.720359,421.136778,-1473.978722,-9169.296203
3598.722916,-1110.269686,937.986459,-8863.014910
3598.725473,-1703.689691,-2813.959378,-8748.159426
3598.728029,-325.423874,-708.275490,-9169.296203
3598.730586,-1225.125171,-3637.090352,-9226.723946
3598.733143,-861.416136,-612.562586,-8690.731683
3598.735700,-172.283227,-1148.554848,-8920.442653
3598.738257,-1205.982590,210.568389,-8997.012976
3598.740814,-1741.974853,-3369.094221,-8863.014910
3598.743371,2488.535504,-1052.841944,-8882.157491
3598.745928,3311.666478,10509.276859,-8556.733618
3598.748487,-6144.768437,-12729.816232,-9552.147819
3598.751045,1971.685822,8001.598774,-9188.438784
3598.753604,-1799.402595,-7293.323285,-9226.723946
3598.756163,-2756.531635,-1167.697429,-8422.735552
3598.758721,689.132909,-287.138712,-8729.016845
3598.761280,-957.129040,-6757.331022,-8595.018779
3598.763839,210.568389,4192.225195,-9226.723946
3598.766397,-1856.830338,-1225.125171,-9494.720077
3598.768956,-95.712904,4766.502619,-9341.579430
3598.771515,-1473.978722,-2048.256146,-9092.725880
3598.774074,248.853550,1359.123237,-9265.009107
3598.776632,-784.845813,-2584.248408,-9341.579430
3598.779191,-459.421939,4230.510357,-8729.016845
3598.781750,478.564520,2048.256146,-8843.872330
3598.784308,153.140646,1167.697429,-9322.436850
3598.786867,-823.130974,1263.410333,-9245.866526
3598.789426,-440.279358,3081.955509,-9494.720077
3598.791985,-1990.828403,-2737.389054,-9513.862658
3598.794543,-957.129040,401.994197,-8882.157491
3598.797102,612.562586,2392.822600,-8997.012976
3598.799661,-957.129040,2277.967115,-9226.723946
3598.802219,-612.562586,2316.252277,-9207.581365
3598.804778,-478.564520,3560.520029,-9360.722011
3598.807337,-650.847747,440.279358,-9571.290400
3598.809895,-1301.695494,2067.398726,-9131.011042
3598.812454,-1339.980656,76.570323,-9418.149754
3598.815013,-708.275490,-516.849682,-9456.434915
3598.817572,-1205.982590,631.705166,-9111.868461
3598.820130,0.000000,-401.994197,-9226.723946
3598.822689,-267.996131,-2756.531635,-9016.155557
3598.825248,-2239.681954,-1531.406464,-9169.296203
3598.827806,-478.564520,-1550.549045,-9265.009107
3598.830365,-1493.121302,-1856.830338,-9245.866526
3598.832924,-899.701298,287.138712,-9131.011042
3598.835482,-440.279358,-1703.689691,-9265.009107
3598.838041,-229.710970,-2565.105827,-9360.722011
3598.840600,-1512.263883,1837.687757,-9035.298138
3598.843159,-1282.552914,708.275490,-8882.157491
3598.845717,-191.425808,765.703232,-8997.012976
3598.848276,-2392.822600,-2258.824534,-9131.011042
3598.850836,-708.275490,191.425808,-9265.009107
3598.853396,-1550.549045,-3866.801322,-9399.007173
3598.855956,-1167.697429,-1607.976787,-9092.725880
3598.858517,-1148.554848,-1397.408398,-9265.009107
3598.861077,459.421939,-478.564520,-8939.585234
3598.863638,-1244.267752,267.996131,-8882.157491
3598.866198,-401.994197,3751.945837,-8767.302006
3598.868759,516.849682,803.988394,-9054.440718
3598.871319,-1339.980656,-95.712904,-9092.725880
3598.873879,-593.420005,153.140646,-9341.579430
3598.876440,-669.990328,1914.258080,-9265.009107
3598.879000,-727.418070,2124.826469,-9073.583299
3598.881561,210.568389,1914.258080,-8537.591037
3598.884121,229.710970,3273.381317,-8843.872330
3598.886681,-1588.834206,-650.847747,-9016.155557
3598.889242,-937.986459,-421.136778,-8729.016845
3598.891802,38.285162,1971.685822,-9035.298138
3598.894363,-1607.976787,-1665.404530,-8977.870395
3598.896923,1301.695494,4517.649069,-8863.014910
3598.899484,153.140646,133.998066,-9207.581365
3598.902044,0.000000,-421.136778,-8920.442653
3598.904604,-229.710970,3885.943902,-8346.165229
3598.907165,-19.142581,19.142581,-8977.870395
3598.909725,-957.129040,555.134843,-8709.874264
3598.912286,-861.416136,-172.283227,-8690.731683
3598.914846,229.710970,1895.115499,-9226.723946
3598.917407,-1818.545176,-3273.381317,-8882.157491
3598.919967,-459.421939,-497.707101,-8767.302006
3598.922527,-1225.125171,-2124.826469,-9265.009107
3598.925088,-937.986459,-2756.531635,-8920.442653
3598.927648,-1148.554848,-76.570323,-8441.878133
3598.930209,478.564520,1033.699363,-8709.874264
3598.932769,-1091.127106,-3349.951640,-8824.729749
3598.935329,669.990328,1148.554848,-8575.876198
3598.937890,478.564520,2067.398726,-9131.011042
3598.940450,-2756.531635,-6508.477472,-9590.432981
3598.943011,363.709035,612.562586,-8901.300072
3598.945571,-19.142581,1167.697429,-9054.440718
3598.948132,-1569.691626,-3503.092286,-8920.442653
3598.950692,-1071.984525,440.279358,-8518.448456
3598.953253,344.566454,-3771.088418,-8824.729749
3598.955815,-1473.978722,-1359.123237,-8614.161360
3598.958376,-1435.693560,19.142581,-9092.725880
3598.960938,-95.712904,2182.254211,-9207.581365
3598.963499,-1110.269686,957.129040,-9456.434915
3598.966061,-382.851616,325.423874,-8939.585234
3598.968622,19.142581,-1033.699363,-9169.296203
3598.971184,-1186.840010,-363.709035,-9073.583299
3598.973745,-191.425808,2584.248408,-8499.305875
3598.976306,-708.275490,5111.069074,-9265.009107
3598.978868,-803.988394,1301.695494,-9647.860723
3598.981429,-880.558717,1933.400661,-9245.866526
3598.983991,-1454.836141,95.712904,-9609.575562
3598.986552,-957.129040,-3349.951640,-9456.434915
3598.989114,401.994197,2871.387120,-8461.020714
3598.991675,0.000000,3503.092286,-9150.153622
3598.994237,-1703.689691,-631.705166,-9226.723946
3598.996798,-1186.840010,612.562586,-9399.007173
3598.999359,-267.996131,1990.828403,-9456.434915
3599.001921,-153.140646,1512.263883,-9284.151688
3599.004482,-1473.978722,2316.252277,-9150.153622
3599.007044,-1148.554848,-3139.383251,-9379.864592
3599.009605,-459.421939,1971.685822,-9360.722011
3599.012167,-842.273555,-3024.527766,-9207.581365
3599.014728,-937.986459,555.134843,-8805.587168
3599.017290,-1531.406464,-3713.660675,-9360.722011
3599.019851,-516.849682,-421.136778,-9054.440718
3599.022412,-1990.828403,-2239.681954,-9456.434915
3599.024974,-19.142581,-669.990328,-9399.007173
3599.027535,-2354.537438,-1052.841944,-9188.438784
3599.030097,-669.990328,-2335.394858,-9552.147819
3599.032658,-267.996131,-3579.662610,-9169.296203
3599.035220,-784.845813,-2450.250342,-8939.585234
3599.037781,-631.705166,-4211.367776,-9188.438784
3599.040343,191.425808,1339.980656,-9054.440718
3599.042904,-1454.836141,-3005.385186,-9092.725880
3599.045466,-593.420005,1588.834206,-9188.438784
3599.048027,-1186.840010,-5761.916821,-9590.432981
3599.050588,-1646.261949,-1933.400661,-9150.153622
3599.053150,-1110.269686,-1033.699363,-9647.860723
3599.055712,0.000000,1416.550979,-8920.442653
3599.058275,-1378.265818,2794.816797,-8920.442653
3599.060837,19.142581,114.855485,-8863.014910
3599.063400,-267.996131,229.710970,-9150.153622
3599.065962,-650.847747,-1799.402595,-9245.866526
3599.068525,-459.421939,4077.369710,-9092.725880
3599.071087,-497.707101,2182.254211,-9437.292334
3599.073650,-995.414202,4977.071008,-9111.868461
3599.076212,-765.703232,1052.841944,-8575.876198
3599.078775,612.562586,-6374.479406,-9016.155557
3599.081337,497.707101,9571.290400,-8958.727814
3599.083900,-3675.375514,-8863.014910,-8939.585234
3599.086463,4862.215523,11523.833642,-8690.731683
3599.089025,-2909.672282,-4230.510357,-8882.157491
3599.091588,-516.849682,4421.936165,-9360.722011
3599.094150,880.558717,5627.918755,-9245.866526
3599.096713,-1454.836141,-4249.652938,-8920.442653
3599.099275,746.560651,6929.614250,-8154.739421
3599.101838,-1512.263883,-5493.920690,-8671.589102
3599.104400,727.418070,4287.938099,-8997.012976
3599.106963,-1244.267752,-4230.510357,-9073.583299
3599.109525,0.000000,2048.256146,-8977.870395
3599.112088,-2258.824534,-3828.516160,-8958.727814
3599.114650,-1091.127106,-1244.267752,-8690.731683
3599.117213,-593.420005,-1512.263883,-8997.012976
3599.119775,-880.558717,-2718.246474,-8939.585234
3599.122338,-1014.556782,-765.703232,-8575.876198
3599.124900,440.279358,-1607.976787,-8882.157491
3599.127463,-1014.556782,899.701298,-8901.300072
3599.130025,-1359.123237,-172.283227,-8805.587168
3599.132588,-19.142581,-2009.970984,-9245.866526
3599.135150,-114.855485,-4077.369710,-9265.009107
3599.137713,-1531.406464,-421.136778,-8863.014910
3599.140275,-880.558717,-1914.258080,-9073.583299
3599.142838,-1014.556782,-2297.109696,-8863.014910
3599.145400,-937.986459,-1665.404530,-8652.446522
3599.147963,248.853550,574.277424,-8805.587168
3599.150525,-1033.699363,-1933.400661,-8767.302006
3599.153088,-650.847747,4230.510357,-9188.438784
3599.155650,-114.855485,153.140646,-9341.579430
3599.158194,-382.851616,-114.855485,-9131.011042
3599.160738,-1435.693560,-1033.699363,-8920.442653
3599.163282,267.996131,3005.385186,-9150.153622
3599.165825,-803.988394,363.709035,-9073.583299
3599.168369,248.853550,6489.334891,-8403.592971
3599.170913,-401.994197,-1091.127106,-9533.005238
3599.173457,172.283227,-727.418070,-9533.005238
3599.176000,-1780.260014,535.992262,-9169.296203
3599.178544,-478.564520,3751.945837,-9513.862658
3599.181088,-823.130974,382.851616,-9226.723946
3599.183632,-478.564520,3464.807125,-8939.585234
3599.186175,-1416.550979,363.709035,-9418.149754
3599.188719,19.142581,-478.564520,-9245.866526
3599.191263,-1359.123237,593.420005,-9284.151688
3599.193807,-133.998066,842.273555,-9207.581365
3599.196350,-1186.840010,-133.998066,-9169.296203
3599.198894,-1014.556782,1167.697429,-9188.438784
3599.201438,-95.712904,-1091.127106,-9437.292334
3599.203982,-1244.267752,-2182.254211,-9245.866526
3599.206525,-1186.840010,-2067.398726,-8958.727814
3599.209069,-191.425808,-1186.840010,-9092.725880
3599.211613,-1167.697429,-1454.836141,-9284.151688
3599.214157,-1110.269686,535.992262,-9073.583299
3599.216700,-593.420005,-2029.113565,-9303.294269
3599.219244,-267.996131,-3637.090352,-9399.007173
3599.221788,-1493.121302,2124.826469,-9131.011042
3599.224332,-1167.697429,-459.421939,-9399.007173
3599.226875,-133.998066,535.992262,-9245.866526
3599.229419,-1627.119368,-2890.529701,-9073.583299
3599.231963,-133.998066,248.853550,-8843.872330
3599.234507,-1435.693560,-2641.676150,-9341.579430
3599.237050,-803.988394,-1627.119368,-9169.296203
3599.239594,-1895.115499,669.990328,-9073.583299
3599.242138,-516.849682,-2450.250342,-9437.292334
3599.244682,-1454.836141,3081.955509,-9169.296203
3599.247225,-708.275490,1512.263883,-9552.147819
3599.249769,669.990328,1320.838075,-9073.583299
3599.252313,-765.703232,-1129.412267,-8958.727814
3599.254857,-765.703232,1914.258080,-8920.442653
3599.257400,-708.275490,1627.119368,-9245.866526
3599.259948,-1244.267752,2431.107762,-9150.153622
3599.262495,-38.285162,1282.552914,-9341.579430
3599.265042,-210.568389,-3081.955509,-9513.862658
3599.267589,38.285162,-1837.687757,-8671.589102
3599.270136,-267.996131,3062.812928,-8690.731683
3599.272684,-325.423874,-2392.822600,-9035.298138
3599.275231,631.705166,4192.225195,-8671.589102
3599.277778,-401.994197,-229.710970,-9111.868461
3599.280325,-133.998066,3771.088418,-9245.866526
3599.282872,-1588.834206,-803.988394,-9418.149754
3599.285420,574.277424,3847.658741,-8997.012976
3599.287967,-1167.697429,306.281293,-8748.159426
3599.290514,-267.996131,-440.279358,-8652.446522
3599.293061,-937.986459,421.136778,-8595.018779
3599.295608,133.998066,-1818.545176,-8997.012976
3599.298156,-1186.840010,-746.560651,-8824.729749
3599.300703,-593.420005,-2986.242605,-8709.874264
3599.303250,-191.425808,133.998066,-8920.442653
3599.305797,-1263.410333,-2297.109696,-8939.585234
3599.308344,-497.707101,1244.267752,-8652.446522
3599.310892,-1282.552914,918.843878,-9245.866526
3599.313439,-1014.556782,-5340.780043,-8997.012976
3599.315986,191.425808,2622.533570,-8212.167163
3599.318533,-631.705166,1320.838075,-8977.870395
3599.321080,-1818.545176,-5800.201982,-8671.589102
3599.323628,306.281293,3081.955509,-8633.303941
3599.326175,-325.423874,-4881.358104,-9111.868461
3599.328722,-727.418070,-1397.408398,-8920.442653
3599.331269,-2258.824534,-3330.809059,-8920.442653
3599.333816,746.560651,784.845813,-8997.012976
3599.336364,-1856.830338,-746.560651,-8824.729749
3599.338911,57.427742,5283.352301,-8614.161360
3599.341458,114.855485,784.845813,-9073.583299
3599.344005,-1071.984525,-995.414202,-9609.575562
3599.346552,-689.132909,-478.564520,-9188.438784
3599.349100,-401.994197,3024.527766,-9150.153622
3599.351647,-325.423874,1473.978722,-9073.583299
3599.354194,-267.996131,4938.785846,-8671.589102
3599.356741,-708.275490,2258.824534,-9226.723946
3599.359288,-1263.410333,-1741.974853,-9150.153622
3599.361839,-823.130974,-1071.984525,-8518.448456
3599.364389,-976.271621,957.129040,-9399.007173
3599.366939,172.283227,2124.826469,-9399.007173
3599.369490,-1588.834206,516.849682,-9092.725880
3599.372040,401.994197,1186.840010,-9379.864592
3599.374590,-612.562586,-478.564520,-9341.579430
3599.377141,-95.712904,2431.107762,-8767.302006
3599.379691,-689.132909,1569.691626,-9035.298138
3599.382241,-842.273555,-1225.125171,-9494.720077
3599.384791,-957.129040,363.709035,-9226.723946
3599.387342,-1378.265818,-1761.117434,-9494.720077
3599.389892,248.853550,-899.701298,-9494.720077
3599.392442,-2373.680019,-2584.248408,-9245.866526
3599.394993,-57.427742,-1493.121302,-9188.438784
3599.397543,-1512.263883,-2641.676150,-8920.442653
3599.400093,-478.564520,1244.267752,-8614.161360
3599.402644,-401.994197,-1550.549045,-9284.151688
3599.405194,976.271621,248.853550,-9437.292334
3599.407744,-2297.109696,-2622.533570,-8958.727814
3599.410294,114.855485,1205.982590,-9073.583299
3599.412845,-1014.556782,459.421939,-9552.147819
3599.415395,-2105.683888,-2507.678085,-9265.009107
3599.417945,-708.275490,1971.685822,-9399.007173
3599.420496,-1263.410333,-4881.358104,-9513.862658
3599.423046,-1646.261949,-1493.121302,-8977.870395
3599.425596,-1148.554848,-1684.547110,-9303.294269
3599.428147,-210.568389,2067.398726,-9456.434915
3599.430697,-1818.545176,2258.824534,-9131.011042
3599.433247,976.271621,1914.258080,-9245.866526
3599.435797,-1320.838075,-746.560651,-9590.432981
3599.438348,-478.564520,-1186.840010,-9322.436850
3599.440898,-1052.841944,2813.959378,-9322.436850
3599.443448,-210.568389,2431.107762,-9054.440718
3599.445999,-727.418070,3656.232933,-8920.442653
3599.448549,-1512.263883,1971.685822,-9533.005238
3599.451099,-1167.697429,-7312.465866,-9686.145885
3599.453650,1856.830338,11408.978157,-9245.866526
3599.456200,-5666.203917,-2986.242605,-9992.427178
3599.458750,1014.556782,765.703232,-9016.155557
3599.461301,2163.111630,6068.198114,-8729.016845
3599.463854,-555.134843,-2756.531635,-8977.870395
3599.466407,861.416136,6546.762634,-9073.583299
3599.468960,-2603.390989,-3579.662610,-9188.438784
3599.471514,-153.140646,3828.516160,-8748.159426
3599.474067,-1378.265818,-1244.267752,-9150.153622
3599.476620,-593.420005,765.703232,-9150.153622
3599.479174,-1416.550979,-1416.550979,-9533.005238
3599.481727,880.558717,-3139.383251,-8977.870395
3599.484280,-1952.543242,-1569.691626,-8939.585234
3599.486833,-880.558717,-1033.699363,-8709.874264
3599.489387,-248.853550,-1703.689691,-8786.444587
3599.491940,-1148.554848,-133.998066,-8767.302006
3599.494493,57.427742,-899.701298,-8882.157491
3599.497047,-708.275490,937.986459,-9590.432981
3599.499600,-1627.119368,-2641.676150,-9169.296203
3599.502153,-2105.683888,-401.994197,-8422.735552
3599.504707,1148.554848,-2794.816797,-8863.014910
3599.507260,-1818.545176,-2545.963246,-8786.444587
3599.509813,-401.994197,-1129.412267,-8882.157491
3599.512366,-76.570323,-1569.691626,-9054.440718
3599.514920,-1914.258080,-2048.256146,-8901.300072
3599.517473,-344.566454,1971.685822,-8920.442653
3599.520026,-1110.269686,-842.273555,-8958.727814
3599.522580,-38.285162,3713.660675,-9150.153622
3599.525133,-995.414202,-401.994197,-8767.302006
3599.527686,650.847747,1761.117434,-8824.729749
3599.530240,-1186.840010,-1914.258080,-8843.872330
3599.532793,-95.712904,4326.223261,-8633.303941
3599.535346,-306.281293,2660.818731,-8997.012976
3599.537899,114.855485,1244.267752,-9303.294269
3599.540453,-1818.545176,4364.508422,-8939.585234
3599.543006,-842.273555,-4402.793584,-9341.579430
3599.545561,593.420005,727.418070,-8767.302006
3599.548117,-1167.697429,803.988394,-8709.874264
3599.550672,1435.693560,4862.215523,-8748.159426
3599.553228,-1933.400661,-382.851616,-8767.302006
3599.555783,1416.550979,5283.352301,-8652.446522
3599.558339,-669.990328,267.996131,-9571.290400
3599.560894,-57.427742,-363.709035,-9303.294269
3599.563449,-1607.976787,555.134843,-8729.016845
3599.566005,114.855485,1684.547110,-9016.155557
3599.568560,-401.994197,-2545.963246,-8882.157491
3599.571116,-1512.263883,-842.273555,-8499.305875
3599.573671,363.709035,-2699.103893,-9073.583299
3599.576227,-842.273555,-2507.678085,-9456.434915
3599.578782,-1703.689691,-306.281293,-9111.868461
3599.581337,-1052.841944,-1339.980656,-9111.868461
3599.583893,-1473.978722,-2373.680019,-9322.436850
3599.586448,-784.845813,-3426.521963,-8958.727814
3599.589004,861.416136,957.129040,-9226.723946
3599.591559,-1052.841944,-4345.365842,-8997.012976
3599.594115,-153.140646,1301.695494,-8422.735552
3599.596670,-1378.265818,229.710970,-9265.009107
3599.599225,-765.703232,-3522.234867,-9533.005238
3599.601781,-1588.834206,-746.560651,-9188.438784
3599.604336,-861.416136,-3617.947771,-9533.005238
3599.606892,-823.130974,-267.996131,-9303.294269
3599.609447,-1627.119368,-708.275490,-8729.016845
3599.612003,555.134843,3732.803256,-8901.300072
3599.614558,-497.707101,-746.560651,-9647.860723
3599.617113,-574.277424,1091.127106,-9418.149754
3599.619669,-765.703232,-1071.984525,-9418.149754
3599.622224,-516.849682,2488.535504,-9437.292334
3599.624780,-1225.125171,1493.121302,-9092.725880
3599.627335,-76.570323,4421.936165,-9207.581365
3599.629891,-421.136778,-3579.662610,-9360.722011
3599.632446,114.855485,3005.385186,-9035.298138
3599.635001,-1780.260014,765.703232,-9092.725880
3599.637557,1014.556782,-1129.412267,-9418.149754
3599.640112,-1148.554848,6757.331022,-9131.011042
3599.642668,-1473.978722,-440.279358,-9686.145885
3599.645223,191.425808,3177.668413,-9552.147819
3599.647781,-1703.689691,-1837.687757,-9647.860723
3599.650338,937.986459,4823.930362,-9322.436850
3599.652896,-2431.107762,-4230.510357,-9475.577496
3599.655453,-248.853550,1148.554848,-8748.159426
3599.658011,-976.271621,-248.853550,-8977.870395
3599.660568,-497.707101,-2469.392923,-9322.436850
3599.663126,-1665.404530,-535.992262,-9322.436850
3599.665683,-1091.127106,-3426.521963,-9418.149754
3599.668240,-765.703232,-478.564520,-9341.579430
3599.670798,-1875.972918,-2833.101958,-9131.011042
3599.673355,-191.425808,-172.283227,-8422.735552
3599.675913,325.423874,-133.998066,-8863.014910
3599.678470,-1339.980656,325.423874,-9016.155557
3599.681028,-1416.550979,-5168.496816,-8958.727814
3599.683585,1205.982590,1569.691626,-9226.723946
3599.686143,-3062.812928,-3043.670347,-9207.581365
3599.688700,-708.275490,1071.984525,-8997.012976
3599.691258,-1512.263883,-3598.805190,-9647.860723
3599.693815,-535.992262,-4689.932296,-8939.585234
3599.696373,-382.851616,2641.676150,-8441.878133
3599.698930,-478.564520,-1416.550979,-8901.300072
3599.701488,-229.710970,4536.791650,-8595.018779
3599.704045,-612.562586,421.136778,-9073.583299
