#time,accel_x,accel_y,accel_z
2387.050477,1184.329507,-75230.577904,3849.070898
2387.053142,-2516.700203,-75843.454302,-17912.983796
2387.055807,-3256.906145,-73851.606007,17172.777854
2387.058473,2516.700203,-72166.195912,2072.576638
2387.061138,-888.247130,-73391.948708,11991.336260
2387.063804,3256.906145,-76456.330700,11251.130318
2387.066469,-2960.823768,-75843.454302,9178.553681
2387.069135,1776.494261,-77528.864398,14804.118840
2387.071800,3108.864956,-75843.454302,1628.453072
2387.074465,-2368.659014,-72472.634111,9326.594869
2387.077131,-1332.370696,-73085.510509,13175.665768
2387.079796,-1924.535449,-72166.195912,7105.977043
2387.082470,3701.029710,-76149.892501,7105.977043
2387.085144,-7254.018232,-77375.645298,-3701.029710
2387.087818,2072.576638,-76149.892501,-8438.347739
2387.090492,-1184.329507,-73391.948708,-9178.553681
2387.093166,-2516.700203,-70940.443115,-6069.688724
2387.095839,888.247130,-72932.291410,-5181.441594
2387.098513,1036.288319,-75383.797003,-1036.288319
2387.101187,1480.411884,-78448.178995,592.164754
2387.103861,-6069.688724,-78448.178995,5181.441594
2387.106535,6069.688724,-76609.549800,4885.359217
2387.109209,-5033.400406,-70021.128517,-6365.771101
2387.111883,3701.029710,-76149.892501,592.164754
2387.114556,4145.153275,-74770.920605,10807.006753
2387.117230,-0.000000,-74311.263306,-13471.748144
2387.119904,444.123565,-71706.538613,1628.453072
2387.122578,2812.782580,-76762.768900,8586.388927
2387.125252,-4589.276840,-78141.740796,-4293.194464
2387.127926,1628.453072,-72319.415011,-7846.182985
2387.130600,-888.247130,-68948.594820,-12879.583391
2387.133274,-6069.688724,-79367.493593,-0.000000
2387.135947,-2664.741391,-77375.645298,-15396.283594
2387.138621,-4293.194464,-73851.606007,-11843.295072
2387.141295,-1924.535449,-73545.167808,-7994.224174
2387.143969,-2368.659014,-73085.510509,-3108.864956
2387.146643,-3997.112087,-76609.549800,7105.977043
2387.149317,2220.617826,-75843.454302,-592.164754
2387.151991,2368.659014,-74158.044206,592.164754
2387.154664,-592.164754,-75537.016103,-2072.576638
2387.157338,-2368.659014,-76303.111601,-11399.171507
2387.160012,-0.000000,-71859.757712,-11695.253884
2387.162686,-1480.411884,-70327.566716,-9326.594869
2387.165360,-1924.535449,-72319.415011,-6217.729913
2387.168034,2368.659014,-74464.482406,4737.318029
2387.170708,2368.659014,-75383.797003,10658.965565
2387.173381,-1776.494261,-73698.386908,-1332.370696
2387.176055,-2220.617826,-75230.577904,3256.906145
2387.178729,-0.000000,-76149.892501,1776.494261
2387.181403,3552.988522,-72625.853210,5625.565159
2387.184077,1628.453072,-71706.538613,7994.224174
2387.186751,2516.700203,-73698.386908,7846.182985
2387.189425,-1776.494261,-76303.111601,-148.041188
2387.192100,-4737.318029,-75230.577904,-1628.453072
2387.194775,6365.771101,-71706.538613,13767.830521
2387.197449,1036.288319,-71553.319513,15692.365970
2387.200124,888.247130,-73391.948708,12731.542202
2387.202798,3404.947333,-76762.768900,10510.924376
2387.205473,1184.329507,-77835.302597,3552.988522
2387.208147,3256.906145,-75383.797003,2368.659014
2387.210822,-2220.617826,-70940.443115,4737.318029
2387.213497,-0.000000,-69101.813920,-4145.153275
2387.216171,5625.565159,-70174.347617,-6809.894666
2387.218846,-4293.194464,-73851.606007,-20429.683999
2387.221520,1184.329507,-72779.072310,15692.365970
2387.224195,3552.988522,-77682.083497,8586.388927
2387.226870,-7402.059420,-74617.701505,-15840.407159
2387.229544,10214.842000,-70634.004916,11251.130318
2387.232219,7105.977043,-69867.909418,-9622.677246
2387.234893,-6069.688724,-70787.224015,-3552.988522
2387.237568,5477.523971,-80899.684589,24574.837274
2387.240242,-3849.070898,-75843.454302,7994.224174
2387.242917,2516.700203,-75230.577904,18801.230927
2387.245592,2072.576638,-74311.263306,444.123565
2387.248266,-2220.617826,-72012.976812,3552.988522
2387.250941,6069.688724,-73391.948708,2220.617826
2387.253615,-3108.864956,-75077.358804,-3997.112087
2387.256290,2664.741391,-74158.044206,10955.047942
2387.258964,-0.000000,-76149.892501,8290.306550
2387.261639,-1776.494261,-72166.195912,10955.047942
2387.264314,-3701.029710,-75230.577904,2812.782580
2387.266988,5921.647536,-73391.948708,6513.812290
2387.269663,3108.864956,-72932.291410,12287.418637
2387.272337,-1036.288319,-75383.797003,6365.771101
2387.275012,1036.288319,-76149.892501,9030.512492
2387.277687,-3701.029710,-80133.589091,-2812.782580
2387.280361,2812.782580,-73238.729609,-9030.512492
2387.283036,4737.318029,-70940.443115,-6069.688724
2387.285710,1776.494261,-70174.347617,6217.729913
2387.288385,-2220.617826,-73698.386908,1184.329507
2387.291059,3997.112087,-78294.959896,-2516.700203
2387.293734,-3552.988522,-77682.083497,444.123565
2387.296401,3849.070898,-74004.825107,-6069.688724
2387.299069,-592.164754,-71706.538613,-1628.453072
2387.301736,888.247130,-72319.415011,-6069.688724
2387.304403,1776.494261,-72166.195912,-5921.647536
2387.307071,1332.370696,-75690.235202,-4441.235652
2387.309738,-592.164754,-78601.398095,-5329.482782
2387.312406,-2516.700203,-72166.195912,-740.205942
2387.315073,888.247130,-71246.881314,1776.494261
2387.317740,-1628.453072,-75690.235202,15544.324782
2387.320408,444.123565,-72625.853210,-4441.235652
2387.323075,-4441.235652,-76762.768900,-32272.979071
2387.325742,-444.123565,-74924.139704,14211.954086
2387.328410,4885.359217,-74464.482406,8142.265362
2387.331077,-7550.100608,-72319.415011,-20281.642811
2387.333745,-5477.523971,-72932.291410,-10362.883188
2387.336412,4885.359217,-71706.538613,-6365.771101
2387.339079,-6661.853478,-76915.987999,-16432.571912
2387.341747,1332.370696,-76456.330700,-3701.029710
2387.344414,-7846.182985,-75843.454302,-17764.942608
2387.347081,-6661.853478,-74617.701505,-444.123565
2387.349749,3849.070898,-75996.673402,2072.576638
2387.352416,-7994.224174,-74617.701505,7698.141797
2387.355084,-0.000000,-74617.701505,6217.729913
2387.357751,-9622.677246,-75383.797003,-7254.018232
2387.360418,-3552.988522,-74617.701505,-11251.130318
2387.363086,592.164754,-75230.577904,-13915.871710
2387.365753,-2664.741391,-71553.319513,-7402.059420
2387.368420,-1924.535449,-73391.948708,-592.164754
2387.371088,-1332.370696,-75383.797003,5329.482782
2387.373755,7254.018232,-75690.235202,5477.523971
2387.376422,-3552.988522,-74770.920605,-1628.453072
2387.379090,-4441.235652,-75077.358804,740.205942
2387.381757,-148.041188,-75077.358804,5329.482782
2387.384425,1332.370696,-71859.757712,5625.565159
2387.387092,4737.318029,-71553.319513,16284.530724
2387.389759,4293.194464,-73238.729609,7698.141797
2387.392427,1776.494261,-78141.740796,2072.576638
2387.395094,-7550.100608,-77069.207099,-1184.329507
2387.397761,8734.430116,-72012.976812,7254.018232
2387.400429,1776.494261,-69714.690318,13323.706956
2387.403088,2516.700203,-72319.415011,10066.800811
2387.405747,-1332.370696,-77375.645298,7254.018232
2387.408406,-2664.741391,-78754.617194,1628.453072
2387.411066,16876.695478,-73238.729609,3552.988522
2387.413725,444.123565,-69101.813920,10807.006753
2387.416384,296.082377,-75843.454302,19689.478057
2387.419043,3849.070898,-72779.072310,21465.972318
2387.421702,3256.906145,-77222.426198,-6661.853478
2387.424362,-4737.318029,-74924.139704,-2516.700203
2387.427021,4885.359217,-76149.892501,19985.560434
2387.429680,-740.205942,-74311.263306,-1184.329507
2387.432339,592.164754,-71553.319513,5625.565159
2387.434998,2960.823768,-72166.195912,4589.276840
2387.437658,-3404.947333,-73698.386908,14656.077652
2387.440317,2960.823768,-77988.521696,9770.718434
2387.442976,-2516.700203,-77682.083497,18949.272115
2387.445635,4293.194464,-75537.016103,5921.647536
2387.448295,5773.606348,-70787.224015,10362.883188
2387.450954,-296.082377,-73545.167808,10955.047942
2387.453613,-3701.029710,-75230.577904,444.123565
2387.456272,5329.482782,-74617.701505,5625.565159
2387.458931,-1924.535449,-75077.358804,3997.112087
2387.461591,-148.041188,-74924.139704,6809.894666
2387.464250,444.123565,-73391.948708,6957.935855
2387.466909,296.082377,-73391.948708,2368.659014
2387.469568,2960.823768,-72319.415011,17764.942608
2387.472227,-740.205942,-76149.892501,8734.430116
2387.474887,-3108.864956,-76915.987999,-19985.560434
2387.477546,-888.247130,-77835.302597,-16728.654289
2387.480205,1480.411884,-73391.948708,-14656.077652
2387.482864,-3997.112087,-66803.527426,3108.864956
2387.485523,4145.153275,-70174.347617,5329.482782
2387.488183,-9030.512492,-75383.797003,4589.276840
2387.490842,-1332.370696,-80593.246390,-5625.565159
2387.493501,-4145.153275,-78141.740796,-7994.224174
2387.496160,-1184.329507,-71553.319513,-6957.935855
2387.498820,5033.400406,-68795.375720,-3552.988522
2387.501479,-1036.288319,-71246.881314,-2516.700203
2387.504138,-148.041188,-76303.111601,-5181.441594
2387.506797,-3849.070898,-78448.178995,-7254.018232
2387.509448,3404.947333,-73545.167808,-2664.741391
2387.512099,1776.494261,-72472.634111,4293.194464
2387.514750,-148.041188,-75383.797003,20725.766376
2387.517401,2368.659014,-70174.347617,-7105.977043
2387.520052,-7254.018232,-74311.263306,-33753.390955
2387.522703,740.205942,-75690.235202,4885.359217
2387.525354,444.123565,-73698.386908,3108.864956
2387.528005,1924.535449,-73085.510509,-3108.864956
2387.530656,4885.359217,-73698.386908,-14359.995275
2387.533307,-5625.565159,-77375.645298,-6069.688724
2387.535958,-296.082377,-73698.386908,-14063.912898
2387.538609,-5773.606348,-72166.195912,-6957.935855
2387.541260,-2664.741391,-74464.482406,-444.123565
2387.543911,1332.370696,-73391.948708,-4145.153275
2387.546562,-5625.565159,-74004.825107,1184.329507
2387.549213,4441.235652,-76303.111601,3256.906145
2387.551864,-0.000000,-74617.701505,-5033.400406
2387.554515,-5033.400406,-76303.111601,-3849.070898
2387.557166,-5625.565159,-72166.195912,-13323.706956
2387.559817,-1036.288319,-72932.291410,-8142.265362
2387.562468,-2516.700203,-73545.167808,-7846.182985
2387.565119,6809.894666,-72932.291410,9770.718434
2387.567770,-1184.329507,-75230.577904,11695.253884
2387.570420,-1628.453072,-76456.330700,-1628.453072
2387.573071,-888.247130,-75690.235202,3997.112087
2387.575722,444.123565,-75690.235202,2072.576638
2387.578373,1628.453072,-70940.443115,6513.812290
2387.581024,888.247130,-70021.128517,13323.706956
2387.583675,7105.977043,-74311.263306,8142.265362
2387.586326,-444.123565,-77528.864398,-3849.070898
2387.588977,-1776.494261,-77222.426198,1924.535449
2387.591628,6217.729913,-71706.538613,5181.441594
2387.594270,-2220.617826,-71093.662214,15396.283594
2387.596912,7994.224174,-72012.976812,14508.036463
2387.599554,-6809.894666,-75537.016103,8734.430116
2387.602196,5921.647536,-75996.673402,444.123565
2387.604838,-1480.411884,-72166.195912,1924.535449
2387.607480,-0.000000,-74311.263306,13915.871710
2387.610122,6661.853478,-67416.403824,-13915.871710
2387.612763,-6217.729913,-74924.139704,-1924.535449
2387.615405,4885.359217,-73545.167808,26647.413912
2387.618047,1628.453072,-75843.454302,-6957.935855
2387.620689,-5625.565159,-74770.920605,-6217.729913
2387.623331,2072.576638,-75383.797003,2664.741391
2387.625973,1184.329507,-74311.263306,38342.667796
2387.628615,4145.153275,-69101.813920,12287.418637
2387.631257,2368.659014,-74464.482406,12879.583391
2387.633898,2812.782580,-73545.167808,4589.276840
2387.636540,2072.576638,-73085.510509,1184.329507
2387.639182,6957.935855,-70021.128517,6661.853478
2387.641824,5181.441594,-70940.443115,10955.047942
2387.644466,-4589.276840,-73545.167808,9326.594869
2387.647108,2368.659014,-75996.673402,3552.988522
2387.649750,1776.494261,-73391.948708,-4441.235652
2387.652392,740.205942,-75230.577904,-2072.576638
2387.655034,2220.617826,-72932.291410,6513.812290
2387.657675,5477.523971,-72166.195912,15248.242405
2387.660317,-740.205942,-72166.195912,17024.736666
2387.662959,-3552.988522,-76149.892501,9918.759623
2387.665601,-4589.276840,-77835.302597,-10510.924376
2387.668243,-2368.659014,-76303.111601,-17468.860231
2387.670885,740.205942,-72319.415011,-16876.695478
2387.673527,-1480.411884,-67722.842023,-1480.411884
2387.676169,4293.194464,-70787.224015,592.164754
2387.678810,1332.370696,-74770.920605,1776.494261
2387.681452,-4885.359217,-79673.931792,-2516.700203
2387.684094,-444.123565,-78141.740796,-5033.400406
2387.686736,-740.205942,-72166.195912,592.164754
2387.689378,148.041188,-70634.004916,-4293.194464
2387.692020,-148.041188,-70634.004916,-7254.018232
2387.694662,-1036.288319,-72932.291410,-9178.553681
2387.697304,3108.864956,-73085.510509,-12287.418637
2387.699946,740.205942,-76762.768900,5033.400406
2387.702587,-1332.370696,-70634.004916,-10658.965565
2387.705229,888.247130,-72625.853210,-11695.253884
2387.707871,-3701.029710,-71246.881314,-22650.301825
2387.710513,3108.864956,-75230.577904,2516.700203
2387.713155,-3997.112087,-74158.044206,-13767.830521
2387.715797,-4885.359217,-69561.471218,-21762.054695
2387.718439,148.041188,-73851.606007,6217.729913
2387.721070,-888.247130,-74158.044206,-1480.411884
2387.723701,-3108.864956,-75843.454302,-8586.388927
2387.726332,2368.659014,-70634.004916,-11991.336260
2387.728963,-2072.576638,-70174.347617,-19689.478057
2387.731595,-0.000000,-71093.662214,-1480.411884
2387.734226,7105.977043,-73698.386908,-592.164754
2387.736857,-4145.153275,-73698.386908,5033.400406
2387.739488,2812.782580,-77222.426198,-2960.823768
2387.742119,-10658.965565,-75843.454302,-9474.636058
2387.744750,1184.329507,-72932.291410,-8734.430116
2387.747382,296.082377,-71400.100414,-7254.018232
2387.750013,-2664.741391,-72472.634111,-1184.329507
2387.752644,2220.617826,-75077.358804,1628.453072
2387.755275,-0.000000,-75996.673402,2368.659014
2387.757906,1628.453072,-75383.797003,-5625.565159
2387.760537,-5477.523971,-73391.948708,10510.924376
2387.763169,3701.029710,-74158.044206,7402.059420
2387.765800,-148.041188,-72166.195912,11695.253884
2387.768431,4145.153275,-73698.386908,16136.489536
2387.771062,888.247130,-75230.577904,3849.070898
2387.773693,-3997.112087,-75230.577904,2072.576638
2387.776324,-1628.453072,-75537.016103,-2960.823768
2387.778956,2664.741391,-71706.538613,7994.224174
2387.781587,444.123565,-71246.881314,11251.130318
2387.784218,2368.659014,-72472.634111,13175.665768
2387.786849,-2072.576638,-76303.111601,11103.089130
2387.789480,4293.194464,-73238.729609,1628.453072
2387.792112,1924.535449,-74924.139704,10807.006753
2387.794743,-5773.606348,-69408.252119,-2072.576638
2387.797374,-1924.535449,-71859.757712,-2960.823768
2387.800005,-3849.070898,-73545.167808,27239.578666
2387.802636,3404.947333,-75996.673402,-3552.988522
2387.805261,-4293.194464,-74311.263306,-12435.459826
2387.807885,-0.000000,-74617.701505,11103.089130
2387.810510,6513.812290,-77682.083497,22798.343014
2387.813134,-4293.194464,-73698.386908,5625.565159
2387.815758,9178.553681,-72472.634111,22946.384202
2387.818383,-4293.194464,-78907.836294,14952.160028
2387.821007,-148.041188,-78448.178995,20725.766376
2387.823632,-7994.224174,-79673.931792,7105.977043
2387.826256,-6957.935855,-72319.415011,5625.565159
2387.828881,7254.018232,-72932.291410,5181.441594
2387.831505,-6661.853478,-74158.044206,-148.041188
2387.834130,3404.947333,-74770.920605,6365.771101
2387.836754,-4737.318029,-74617.701505,3997.112087
2387.839379,6661.853478,-74464.482406,10214.842000
2387.842003,8586.388927,-74617.701505,22502.260637
2387.844628,-296.082377,-74924.139704,12879.583391
2387.847252,2220.617826,-75690.235202,10955.047942
2387.849876,-4441.235652,-78601.398095,-5625.565159
2387.852501,1628.453072,-74004.825107,-18209.066173
2387.855125,-0.000000,-71859.757712,-12583.501014
2387.857750,-592.164754,-69714.690318,-148.041188
2387.860374,-5181.441594,-73085.510509,5181.441594
2387.862999,2960.823768,-77222.426198,3108.864956
2387.865623,-888.247130,-78907.836294,2960.823768
2387.868248,-0.000000,-75843.454302,-6957.935855
2387.870872,-2072.576638,-72779.072310,-6661.853478
2387.873497,-2812.782580,-72166.195912,-6957.935855
2387.876121,-2516.700203,-71553.319513,-8438.347739
2387.878746,1924.535449,-70940.443115,-8290.306550
2387.881370,888.247130,-76915.987999,-2812.782580
2387.883994,-2368.659014,-77375.645298,10066.800811
2387.886619,1332.370696,-76303.111601,10658.965565
2387.889243,-2960.823768,-74311.263306,-22058.137072
2387.891868,-1332.370696,-73391.948708,1332.370696
2387.894492,2368.659014,-74924.139704,-2812.782580
2387.897117,-3552.988522,-72319.415011,-0.000000
2387.899741,6957.935855,-75690.235202,21317.931130
2387.902366,-5329.482782,-75843.454302,-11843.295072
2387.904990,-5773.606348,-73851.606007,-15248.242405
2387.907615,3701.029710,-78141.740796,-2072.576638
2387.910154,-5033.400406,-73391.948708,-5625.565159
2387.912694,5477.523971,-75537.016103,6809.894666
2387.915233,-2664.741391,-76149.892501,-2812.782580
2387.917773,-1184.329507,-74311.263306,-888.247130
2387.920312,1332.370696,-76456.330700,-7402.059420
2387.922852,-5181.441594,-74464.482406,-9326.594869
2387.925392,2220.617826,-71246.881314,-4589.276840
2387.927931,-2516.700203,-71400.100414,-6513.812290
2387.930471,3701.029710,-73545.167808,-1184.329507
2387.933010,-1184.329507,-76456.330700,-592.164754
2387.935550,888.247130,-75843.454302,3108.864956
2387.938089,2516.700203,-74004.825107,3552.988522
2387.940629,888.247130,-73391.948708,13767.830521
2387.943169,3256.906145,-73238.729609,10510.924376
2387.945708,-592.164754,-73851.606007,9622.677246
2387.948248,7698.141797,-75383.797003,8438.347739
2387.950787,-6217.729913,-75843.454302,-888.247130
2387.953327,-3404.947333,-73545.167808,1628.453072
2387.955866,-1184.329507,-71859.757712,4145.153275
2387.958406,-1332.370696,-71400.100414,9474.636058
2387.960946,4737.318029,-74617.701505,11991.336260
2387.963485,-0.000000,-78294.959896,5921.647536
2387.966025,-3997.112087,-76303.111601,11251.130318
2387.968564,-1480.411884,-74158.044206,6069.688724
2387.971104,2220.617826,-70787.224015,-2812.782580
2387.973643,-1776.494261,-73851.606007,-5329.482782
2387.976183,-3997.112087,-72012.976812,444.123565
2387.978722,8586.388927,-72472.634111,19097.313304
2387.981262,-8734.430116,-74004.825107,-34641.638086
2387.983802,2960.823768,-72012.976812,19393.395680
2387.986341,6365.771101,-72472.634111,-11991.336260
2387.988881,-10955.047942,-69561.471218,3701.029710
2387.991420,14656.077652,-73698.386908,24426.796086
2387.993960,-8142.265362,-68182.499322,-148.041188
2387.996499,-1628.453072,-78448.178995,17024.736666
2387.999039,10807.006753,-75383.797003,3108.864956
2388.001579,-9622.677246,-72472.634111,888.247130
2388.004118,9622.677246,-72932.291410,8882.471304
2388.006658,-2664.741391,-71400.100414,1332.370696
2388.009197,2812.782580,-73851.606007,3849.070898
2388.011752,-4293.194464,-75996.673402,296.082377
2388.014306,5773.606348,-75383.797003,7402.059420
2388.016861,2516.700203,-74004.825107,15840.407159
2388.019415,-0.000000,-74004.825107,11251.130318
2388.021970,-2220.617826,-74004.825107,-8734.430116
2388.024524,-3552.988522,-76149.892501,-16136.489536
2388.027079,9030.512492,-73851.606007,-23094.425390
2388.029633,-8734.430116,-70480.785816,-6661.853478
2388.032188,10658.965565,-70940.443115,-5181.441594
2388.034742,-4145.153275,-74770.920605,5033.400406
2388.037296,-4145.153275,-77069.207099,1628.453072
2388.039851,-4145.153275,-77988.521696,-2960.823768
2388.042405,-2368.659014,-75383.797003,-148.041188
2388.044960,1480.411884,-71859.757712,-8734.430116
2388.047514,-2516.700203,-70787.224015,-7105.977043
2388.050069,592.164754,-72012.976812,-11991.336260
2388.052623,148.041188,-71246.881314,-8586.388927
2388.055178,-2368.659014,-78448.178995,4441.235652
2388.057732,-4737.318029,-73391.948708,4737.318029
2388.060287,10066.800811,-75077.358804,30644.525999
2388.062841,-4441.235652,-76762.768900,-20577.725188
2388.065396,-888.247130,-73698.386908,3404.947333
2388.067950,9178.553681,-78448.178995,21614.013506
2388.070505,-10362.883188,-69101.813920,-33457.308578
2388.073059,-4885.359217,-78601.398095,7105.977043
2388.075613,3404.947333,-75843.454302,-13027.624579
2388.078168,-13175.665768,-73698.386908,-9326.594869
2388.080722,4885.359217,-76456.330700,5773.606348
2388.083277,-5921.647536,-72166.195912,-7846.182985
2388.085831,2516.700203,-76303.111601,6365.771101
2388.088386,-3256.906145,-77835.302597,-13767.830521
2388.090940,740.205942,-74924.139704,-7254.018232
2388.093495,2072.576638,-74770.920605,-2516.700203
2388.096049,-4589.276840,-70787.224015,-4293.194464
2388.098604,3849.070898,-71246.881314,3997.112087
2388.101158,-4589.276840,-74004.825107,-592.164754
2388.103713,5921.647536,-74004.825107,-740.205942
2388.106267,-1332.370696,-77528.864398,-9474.636058
2388.108822,148.041188,-73391.948708,3997.112087
2388.111376,2072.576638,-72779.072310,10214.842000
2388.113942,2072.576638,-72779.072310,14211.954086
2388.116508,1628.453072,-74464.482406,18061.024985
2388.119074,1036.288319,-76762.768900,-1776.494261
2388.121640,-6661.853478,-76609.549800,1184.329507
2388.124206,-4145.153275,-74464.482406,-888.247130
2388.126772,3997.112087,-68488.937521,10214.842000
2388.129338,2072.576638,-69714.690318,15248.242405
2388.131904,-1036.288319,-77069.207099,9030.512492
2388.134470,296.082377,-79980.369991,10807.006753
2388.137036,-740.205942,-78141.740796,6513.812290
2388.139602,296.082377,-77988.521696,23538.548956
2388.142168,5773.606348,-71400.100414,22058.137072
2388.144734,2664.741391,-72472.634111,10066.800811
2388.147300,-2812.782580,-73391.948708,-13175.665768
2388.149866,-1776.494261,-74311.263306,-5329.482782
2388.152432,-1628.453072,-77375.645298,-5181.441594
2388.154998,-740.205942,-76149.892501,18949.272115
2388.157564,5921.647536,-70174.347617,10214.842000
2388.160130,740.205942,-68795.375720,13619.789333
2388.162696,9178.553681,-72779.072310,12435.459826
2388.165262,4145.153275,-74464.482406,9178.553681
2388.167828,-444.123565,-77988.521696,7994.224174
2388.170394,6365.771101,-73238.729609,8882.471304
2388.172960,888.247130,-71706.538613,9030.512492
2388.175526,3108.864956,-70327.566716,6513.812290
2388.178092,1036.288319,-75537.016103,-0.000000
2388.180658,2812.782580,-76609.549800,444.123565
2388.183225,-1924.535449,-75537.016103,14359.995275
2388.185791,1924.535449,-74770.920605,16876.695478
2388.188357,2960.823768,-74311.263306,14952.160028
2388.190923,-4737.318029,-78141.740796,-3108.864956
2388.193489,3108.864956,-74617.701505,-21021.848753
2388.196055,-1776.494261,-72932.291410,-14952.160028
2388.198621,-296.082377,-69101.813920,-5625.565159
2388.201187,-7698.141797,-72625.853210,2664.741391
2388.203753,6069.688724,-75996.673402,2072.576638
2388.206319,-2516.700203,-77835.302597,2664.741391
2388.208885,-0.000000,-76915.987999,-3701.029710
2388.211451,-592.164754,-74158.044206,-3997.112087
2388.214017,-2368.659014,-73851.606007,-7846.182985
2388.216524,-4737.318029,-74004.825107,-7550.100608
2388.219031,-888.247130,-77375.645298,-3997.112087
2388.221538,-1776.494261,-75077.358804,-7994.224174
2388.224045,2812.782580,-75690.235202,740.205942
2388.226552,-9918.759623,-74617.701505,-18653.189738
2388.229059,4293.194464,-72932.291410,5625.565159
2388.231566,-4293.194464,-74770.920605,1332.370696
2388.234073,-7994.224174,-74617.701505,-8734.430116
2388.236580,6661.853478,-76303.111601,23686.590144
2388.239087,-8290.306550,-79520.712692,-11251.130318
2388.241594,148.041188,-72012.976812,-9326.594869
2388.244101,4441.235652,-70327.566716,-8142.265362
2388.246608,148.041188,-68642.156621,-15988.448347
2388.249115,2220.617826,-70940.443115,3701.029710
2388.251622,-3849.070898,-74617.701505,-6365.771101
2388.254129,-4589.276840,-76303.111601,-5921.647536
2388.256636,-1184.329507,-77835.302597,-9918.759623
2388.259143,-2812.782580,-73545.167808,-7550.100608
2388.261650,2220.617826,-72319.415011,-444.123565
2388.264157,-1480.411884,-72625.853210,2664.741391
2388.266664,2960.823768,-73391.948708,592.164754
2388.269171,-3108.864956,-75996.673402,-4885.359217
2388.271678,-2220.617826,-74770.920605,-2960.823768
2388.274185,-2368.659014,-75077.358804,4737.318029
2388.276692,-592.164754,-72625.853210,13471.748144
2388.279199,3997.112087,-72319.415011,21614.013506
2388.281706,3701.029710,-76762.768900,10066.800811
2388.284213,444.123565,-77069.207099,1924.535449
2388.286720,-6217.729913,-75996.673402,-3849.070898
2388.289227,-296.082377,-71400.100414,148.041188
2388.291734,1628.453072,-68029.280222,8142.265362
2388.294241,1924.535449,-72472.634111,11991.336260
2388.296748,-740.205942,-78141.740796,13027.624579
2388.299255,3701.029710,-78907.836294,11991.336260
2388.301762,296.082377,-71553.319513,-4885.359217
2388.304269,444.123565,-72319.415011,-4293.194464
2388.306776,-3552.988522,-74770.920605,5625.565159
2388.309283,5477.523971,-70787.224015,31384.731941
2388.311790,-6217.729913,-72625.853210,1184.329507
2388.314297,1480.411884,-77988.521696,-9030.512492
2388.316826,3256.906145,-74770.920605,-19985.560434
2388.319355,-2072.576638,-73851.606007,15396.283594
2388.321884,-2664.741391,-71859.757712,21910.095883
2388.324414,-1036.288319,-71859.757712,20281.642811
2388.326943,888.247130,-78601.398095,10510.924376
2388.329472,-1332.370696,-76915.987999,-2072.576638
2388.332002,2664.741391,-75690.235202,-3404.947333
2388.334531,-592.164754,-71859.757712,7994.224174
2388.337060,1628.453072,-71093.662214,4737.318029
2388.339590,296.082377,-72166.195912,3552.988522
2388.342119,4293.194464,-75537.016103,6365.771101
2388.344648,148.041188,-75690.235202,13915.871710
2388.347177,3552.988522,-75996.673402,8734.430116
2388.349707,-2220.617826,-76149.892501,8734.430116
2388.352236,-296.082377,-76609.549800,-2664.741391
2388.354765,5329.482782,-72932.291410,-15840.407159
2388.357295,-592.164754,-70940.443115,-9030.512492
2388.359824,3701.029710,-72472.634111,-8142.265362
2388.362353,-10955.047942,-74464.482406,1628.453072
2388.364882,2368.659014,-77069.207099,1628.453072
2388.367412,-3404.947333,-76303.111601,2220.617826
2388.369941,3108.864956,-75077.358804,-2220.617826
2388.372470,-3256.906145,-73698.386908,-5477.523971
2388.375000,-2960.823768,-73238.729609,-8586.388927
2388.377529,148.041188,-75537.016103,-11251.130318
2388.380058,-592.164754,-72319.415011,-5181.441594
2388.382587,2072.576638,-77835.302597,14656.077652
2388.385117,740.205942,-74158.044206,11103.089130
2388.387646,-888.247130,-75996.673402,-18209.066173
2388.390175,1036.288319,-74770.920605,9474.636058
2388.392705,4441.235652,-74770.920605,-8438.347739
2388.395234,-7550.100608,-74004.825107,6069.688724
2388.397763,5773.606348,-74004.825107,3552.988522
2388.400293,-12287.418637,-76303.111601,-19689.478057
2388.402822,4885.359217,-77682.083497,-7846.182985
2388.405351,-7254.018232,-74158.044206,-12879.583391
2388.407880,-1036.288319,-72779.072310,1924.535449
2388.410410,3997.112087,-75383.797003,3849.070898
2388.412939,-19393.395680,-76149.892501,-6809.894666
2388.415468,8586.388927,-75690.235202,-5329.482782
2388.418015,-5329.482782,-75690.235202,-5921.647536
2388.420562,1036.288319,-72932.291410,-2664.741391
2388.423108,6069.688724,-72779.072310,2220.617826
2388.425655,-3108.864956,-72166.195912,1036.288319
2388.428201,2516.700203,-74004.825107,-6365.771101
2388.430748,-2960.823768,-75383.797003,-2072.576638
2388.433295,-1628.453072,-73851.606007,8438.347739
2388.435841,1480.411884,-73391.948708,11103.089130
2388.438388,2516.700203,-72319.415011,19393.395680
2388.440934,6957.935855,-75077.358804,17172.777854
2388.443481,2072.576638,-77835.302597,1480.411884
2388.446028,888.247130,-76915.987999,-3108.864956
2388.448574,-3404.947333,-72012.976812,1776.494261
2388.451121,9178.553681,-67722.842023,8142.265362
2388.453668,3701.029710,-72779.072310,13175.665768
2388.456214,-2516.700203,-78141.740796,17024.736666
2388.458761,-3108.864956,-78294.959896,4737.318029
2388.461307,-444.123565,-75843.454302,5625.565159
2388.463854,2368.659014,-77988.521696,-7402.059420
2388.466401,-8586.388927,-73545.167808,7994.224174
2388.468947,6513.812290,-71093.662214,14211.954086
2388.471494,-2664.741391,-74004.825107,7402.059420
2388.474040,-11843.295072,-74311.263306,-2960.823768
2388.476587,11399.171507,-77682.083497,13767.830521
2388.479134,-14656.077652,-75690.235202,7994.224174
2388.481680,10066.800811,-75383.797003,26647.413912
2388.484227,-6661.853478,-74158.044206,10807.006753
2388.486773,-9770.718434,-73391.948708,3404.947333
2388.489320,5033.400406,-76303.111601,1184.329507
2388.491867,-9918.759623,-73545.167808,-592.164754
2388.494413,2812.782580,-73238.729609,6365.771101
2388.496960,-4589.276840,-73238.729609,4293.194464
2388.499507,148.041188,-71093.662214,6513.812290
2388.502053,-1480.411884,-75690.235202,18653.189738
2388.504600,-1184.329507,-76149.892501,5033.400406
2388.507146,296.082377,-76915.987999,5477.523971
2388.509693,-4885.359217,-77835.302597,-11843.295072
2388.512240,3552.988522,-71859.757712,-17764.942608
2388.514786,1036.288319,-70021.128517,-3108.864956
2388.517333,888.247130,-70480.785816,-8142.265362
2388.519833,-7402.059420,-73238.729609,2960.823768
2388.522334,8586.388927,-77069.207099,-2812.782580
2388.524834,-3552.988522,-77528.864398,-1924.535449
2388.527335,148.041188,-75077.358804,-2812.782580
2388.529836,-2368.659014,-73391.948708,-4589.276840
2388.532336,-592.164754,-71859.757712,-5773.606348
2388.534837,-592.164754,-75996.673402,-11991.336260
2388.537338,6069.688724,-72779.072310,-10955.047942
2388.539838,2368.659014,-77375.645298,8290.306550
2388.542339,6957.935855,-72319.415011,12731.542202
2388.544839,-7254.018232,-75996.673402,-19541.436869
2388.547340,-1480.411884,-75843.454302,9178.553681
2388.549841,5181.441594,-75537.016103,26055.249158
2388.552341,-6513.812290,-73238.729609,-24278.754898
2388.554842,2072.576638,-79673.931792,-2072.576638
2388.557343,-1628.453072,-77222.426198,-14359.995275
2388.559843,-7846.182985,-72012.976812,-7994.224174
2388.562344,6661.853478,-70021.128517,2516.700203
2388.564845,-1184.329507,-71246.881314,-5033.400406
2388.567345,-4145.153275,-74770.920605,-4441.235652
2388.569846,4885.359217,-77222.426198,-13767.830521
2388.572346,-8290.306550,-74464.482406,-6365.771101
2388.574847,3552.988522,-74004.825107,-444.123565
2388.577348,-1776.494261,-73851.606007,4441.235652
2388.579848,-4737.318029,-74004.825107,2960.823768
2388.582349,5773.606348,-73545.167808,-7105.977043
2388.584850,-2072.576638,-73545.167808,-3404.947333
2388.587350,-2220.617826,-73391.948708,-740.205942
2388.589851,1184.329507,-72779.072310,7846.182985
2388.592351,2812.782580,-72472.634111,14804.118840
2388.594852,1184.329507,-74158.044206,18801.230927
2388.597353,3108.864956,-75537.016103,5329.482782
2388.599853,-7402.059420,-76609.549800,-1480.411884
2388.602354,-1776.494261,-73851.606007,-2220.617826
2388.604855,1924.535449,-69101.813920,5181.441594
2388.607355,1628.453072,-67569.622924,12287.418637
2388.609856,6809.894666,-69408.252119,3997.112087
2388.612357,2072.576638,-77528.864398,11251.130318
2388.614857,148.041188,-73545.167808,-6069.688724
2388.617358,-3256.906145,-76456.330700,-9918.759623
2388.619884,444.123565,-73698.386908,12287.418637
2388.622409,7846.182985,-72779.072310,9326.594869
2388.624935,-4885.359217,-68488.937521,-3552.988522
2388.627461,9030.512492,-72625.853210,-15692.365970
2388.629987,-2220.617826,-73085.510509,4441.235652
2388.632512,3849.070898,-76915.987999,17616.901420
2388.635038,6661.853478,-71400.100414,16876.695478
2388.637564,-6957.935855,-75383.797003,24278.754898
2388.640089,740.205942,-75843.454302,9178.553681
2388.642615,-148.041188,-76303.111601,3849.070898
2388.645141,740.205942,-75537.016103,148.041188
2388.647667,-1036.288319,-74311.263306,1480.411884
2388.650192,2664.741391,-72779.072310,8438.347739
2388.652718,7698.141797,-72319.415011,13323.706956
2388.655244,2516.700203,-72932.291410,17024.736666
2388.657770,-592.164754,-76762.768900,13175.665768
2388.660295,-5477.523971,-78294.959896,-16284.530724
2388.662821,-1480.411884,-76609.549800,-16580.613101
2388.665347,7254.018232,-72932.291410,-17468.860231
2388.667873,-8882.471304,-68335.718422,-4145.153275
2388.670398,7698.141797,-70940.443115,-3849.070898
2388.672924,-6365.771101,-75537.016103,2664.741391
2388.675450,-2664.741391,-78601.398095,-2516.700203
2388.677975,2220.617826,-77222.426198,-1628.453072
2388.680501,-1036.288319,-74004.825107,-3404.947333
2388.683027,-2368.659014,-71706.538613,-5625.565159
2388.685553,4737.318029,-68488.937521,-8438.347739
2388.688078,888.247130,-74770.920605,-11843.295072
2388.690604,-0.000000,-71706.538613,-20429.683999
2388.693130,1332.370696,-76762.768900,-5773.606348
2388.695656,-2516.700203,-71246.881314,21021.848753
2388.698181,1924.535449,-77835.302597,-22206.178260
2388.700707,-7994.224174,-68182.499322,5033.400406
2388.703233,16432.571912,-73545.167808,-3108.864956
2388.705759,-20133.601622,-72932.291410,-26795.455100
2388.708284,16136.489536,-77835.302597,1184.329507
2388.710810,1628.453072,-78754.617194,-11251.130318
2388.713336,-14952.160028,-72012.976812,-3108.864956
2388.715861,16432.571912,-75537.016103,3108.864956
2388.718387,-21169.889941,-73698.386908,-8882.471304
2388.720932,14063.912898,-76915.987999,-5477.523971
2388.723477,-12879.583391,-75230.577904,-13915.871710
2388.726022,1924.535449,-73238.729609,-740.205942
2388.728567,13471.748144,-75230.577904,6661.853478
2388.731111,-13915.871710,-74464.482406,-888.247130
2388.733656,11991.336260,-72166.195912,-6809.894666
2388.736201,-11843.295072,-74311.263306,-1924.535449
2388.738746,4441.235652,-72932.291410,-1036.288319
2388.741291,-5033.400406,-75077.358804,7550.100608
2388.743836,5329.482782,-73545.167808,14211.954086
2388.746380,7994.224174,-73698.386908,15840.407159
2388.748925,-4293.194464,-78141.740796,11103.089130
2388.751470,1628.453072,-76149.892501,-888.247130
2388.754015,-2812.782580,-74311.263306,-1776.494261
2388.756560,3404.947333,-70940.443115,6661.853478
2388.759105,-1332.370696,-70787.224015,10955.047942
2388.761649,7105.977043,-74158.044206,15692.365970
2388.764194,2072.576638,-81052.903688,7698.141797
2388.766739,-10807.006753,-78754.617194,31680.814318
2388.769284,11399.171507,-77835.302597,7550.100608
2388.771829,-13175.665768,-72625.853210,-7698.141797
2388.774374,10807.006753,-72932.291410,15840.407159
2388.776918,-9622.677246,-73851.606007,14063.912898
2388.779463,7105.977043,-77222.426198,33013.185013
2388.782008,-4293.194464,-74770.920605,296.082377
2388.784553,-5921.647536,-74770.920605,14508.036463
2388.787098,11399.171507,-74311.263306,12287.418637
2388.789643,-7105.977043,-72932.291410,9030.512492
2388.792187,12435.459826,-73698.386908,10955.047942
2388.794732,-3552.988522,-74464.482406,4885.359217
2388.797277,1184.329507,-73851.606007,-296.082377
2388.799822,1776.494261,-74924.139704,296.082377
2388.802367,592.164754,-72012.976812,14211.954086
2388.804912,6661.853478,-71400.100414,17024.736666
2388.807457,-8438.347739,-75077.358804,16136.489536
2388.810001,2072.576638,-77835.302597,-5329.482782
2388.812546,-5921.647536,-78141.740796,-17024.736666
2388.815091,8142.265362,-73238.729609,-24130.713709
2388.817636,-3849.070898,-69714.690318,-5329.482782
2388.820181,3256.906145,-70327.566716,-7402.059420
2388.822686,-4293.194464,-74158.044206,2960.823768
2388.825191,-148.041188,-78601.398095,-2960.823768
2388.827697,3997.112087,-78141.740796,3256.906145
2388.830202,-3256.906145,-74158.044206,-3256.906145
2388.832708,740.205942,-70787.224015,-5181.441594
2388.835213,592.164754,-71093.662214,-10658.965565
2388.837718,-6217.729913,-72472.634111,-15544.324782
2388.840224,-888.247130,-69714.690318,-29904.320057
2388.842729,2220.617826,-76303.111601,-10214.842000
2388.845235,148.041188,-72319.415011,24574.837274
2388.847740,9326.594869,-78141.740796,-2960.823768
2388.850245,-14359.995275,-68182.499322,-22206.178260
2388.852751,19393.395680,-75383.797003,38786.791361
2388.855256,-11399.171507,-74004.825107,-24722.878463
2388.857762,-1628.453072,-77069.207099,-5329.482782
2388.860267,14508.036463,-77375.645298,-2812.782580
2388.862772,-15840.407159,-69561.471218,-19245.354492
2388.865278,5773.606348,-72932.291410,-740.205942
2388.867783,-4737.318029,-74770.920605,-8734.430116
2388.870288,-6069.688724,-76303.111601,2664.741391
2388.872794,6957.935855,-76149.892501,-6069.688724
2388.875299,-11251.130318,-74770.920605,-1924.535449
2388.877805,2516.700203,-75843.454302,2368.659014
2388.880310,2812.782580,-74924.139704,888.247130
2388.882815,-3256.906145,-73391.948708,-6513.812290
2388.885321,-5477.523971,-73238.729609,6957.935855
2388.887826,-592.164754,-73698.386908,6957.935855
2388.890332,2664.741391,-73545.167808,16728.654289
2388.892837,1036.288319,-75690.235202,18209.066173
2388.895342,9030.512492,-75996.673402,11399.171507
2388.897848,-888.247130,-76303.111601,3997.112087
2388.900353,-1776.494261,-74311.263306,-1924.535449
2388.902858,-1480.411884,-71859.757712,1480.411884
2388.905364,6809.894666,-72012.976812,6661.853478
2388.907869,-2516.700203,-74158.044206,14952.160028
2388.910375,2664.741391,-74004.825107,3849.070898
2388.912880,888.247130,-75077.358804,1924.535449
2388.915385,-3997.112087,-76915.987999,-7105.977043
2388.917891,1480.411884,-74311.263306,1776.494261
2388.920396,8586.388927,-72319.415011,15248.242405
2388.922925,-12731.542202,-70327.566716,12583.501014
2388.925453,14211.954086,-76456.330700,33457.308578
2388.927982,-6661.853478,-73085.510509,-3997.112087
2388.930510,3701.029710,-73391.948708,19689.478057
2388.933039,11547.212695,-75690.235202,14804.118840
2388.935567,-10658.965565,-71706.538613,13027.624579
2388.938096,8290.306550,-76456.330700,21021.848753
2388.940624,-7105.977043,-74770.920605,8290.306550
2388.943153,6365.771101,-75077.358804,-1924.535449
2388.945681,-1036.288319,-76915.987999,-148.041188
2388.948210,7550.100608,-71859.757712,10214.842000
2388.950738,-148.041188,-72472.634111,19245.354492
2388.953267,-5181.441594,-73391.948708,16728.654289
2388.955795,-1480.411884,-76609.549800,-8882.471304
2388.958324,-5921.647536,-77988.521696,-17320.819043
2388.960852,10807.006753,-72625.853210,-26203.290347
2388.963381,-13619.789333,-69255.033019,-5921.647536
2388.965909,9918.759623,-70480.785816,-7254.018232
2388.968438,-13619.789333,-73391.948708,4441.235652
2388.970966,-740.205942,-79061.055394,-1332.370696
2388.973495,7402.059420,-77835.302597,444.123565
2388.976023,-5921.647536,-74617.701505,-2368.659014
2388.978552,4885.359217,-70940.443115,-5181.441594
2388.981080,740.205942,-68182.499322,-13915.871710
2388.983609,-4885.359217,-74004.825107,-4589.276840
2388.986137,3997.112087,-76762.768900,9474.636058
2388.988666,-148.041188,-74158.044206,-5033.400406
2388.991194,-10807.006753,-72932.291410,-31828.855506
2388.993723,6957.935855,-74617.701505,20577.725188
2388.996251,-3997.112087,-73085.510509,-25018.960840
2388.998780,-10066.800811,-65271.336430,-26055.249158
2389.001308,10362.883188,-75843.454302,1924.535449
2389.003854,-13027.624579,-72779.072310,-27831.743419
2389.006400,9178.553681,-75843.454302,-1924.535449
2389.008946,13175.665768,-75843.454302,-15692.365970
2389.011493,-12731.542202,-71093.662214,-6661.853478
2389.014039,5033.400406,-76149.892501,-444.123565
2389.016585,-296.082377,-73238.729609,-8734.430116
2389.019131,-3701.029710,-74004.825107,148.041188
2389.021677,2072.576638,-75077.358804,-3701.029710
2389.024223,1480.411884,-75230.577904,-1184.329507
2389.026769,592.164754,-75077.358804,-3552.988522
2389.029315,-5181.441594,-72012.976812,2368.659014
2389.031861,1776.494261,-73085.510509,10510.924376
2389.034408,-148.041188,-74464.482406,15692.365970
2389.036954,5329.482782,-73698.386908,16284.530724
2389.039500,5033.400406,-76762.768900,15248.242405
2389.042046,-592.164754,-77375.645298,7254.018232
2389.044592,-3997.112087,-73698.386908,3108.864956
2389.047138,-3256.906145,-73391.948708,-888.247130
2389.049684,740.205942,-72625.853210,5181.441594
2389.052230,-1332.370696,-77835.302597,13323.706956
2389.054776,2812.782580,-73085.510509,6365.771101
2389.057323,-1036.288319,-77069.207099,17320.819043
2389.059869,7698.141797,-77222.426198,-6069.688724
2389.062415,-5329.482782,-74311.263306,4145.153275
2389.064961,2516.700203,-74158.044206,13619.789333
2389.067507,-7846.182985,-72012.976812,2220.617826
2389.070053,2664.741391,-74924.139704,30792.567187
2389.072599,-0.000000,-77528.864398,1924.535449
2389.075145,-4441.235652,-76609.549800,19541.436869
2389.077691,5625.565159,-77222.426198,11251.130318
2389.080237,-10066.800811,-71859.757712,15988.448347
2389.082784,6365.771101,-75537.016103,21317.931130
2389.085330,-5477.523971,-74464.482406,-296.082377
2389.087876,592.164754,-74464.482406,1036.288319
2389.090422,6217.729913,-74924.139704,-592.164754
2389.092968,-6069.688724,-72012.976812,10362.883188
2389.095514,6513.812290,-73391.948708,15544.324782
2389.098060,-8142.265362,-73238.729609,17912.983796
2389.100606,-0.000000,-77835.302597,-4589.276840
2389.103152,2072.576638,-76609.549800,-15544.324782
2389.105713,2220.617826,-71859.757712,-14508.036463
2389.108274,-4885.359217,-70634.004916,-8142.265362
2389.110835,-4737.318029,-72166.195912,1184.329507
2389.113396,444.123565,-75996.673402,1184.329507
2389.115957,-6661.853478,-77682.083497,-0.000000
2389.118517,8734.430116,-75843.454302,-2664.741391
2389.121078,-2516.700203,-73851.606007,-4441.235652
2389.123639,-7698.141797,-74770.920605,-6661.853478
2389.126200,2664.741391,-71246.881314,-11843.295072
2389.128761,-1332.370696,-77835.302597,444.123565
2389.131321,148.041188,-77682.083497,-7550.100608
2389.133882,-148.041188,-72319.415011,13767.830521
2389.136443,10066.800811,-78294.959896,-4145.153275
2389.139004,-19393.395680,-72319.415011,-23390.507767
2389.141565,-4885.359217,-71093.662214,16728.654289
2389.144126,14211.954086,-75843.454302,-7698.141797
2389.146686,-19985.560434,-74617.701505,-17172.777854
2389.149247,9030.512492,-79214.274493,-4885.359217
2389.151808,-7550.100608,-72472.634111,-22946.384202
2389.154369,-3849.070898,-76915.987999,7994.224174
2389.156930,5033.400406,-70940.443115,-14656.077652
2389.159491,-1776.494261,-73698.386908,7402.059420
2389.162051,2220.617826,-75230.577904,444.123565
2389.164612,-8734.430116,-73545.167808,-7994.224174
2389.167173,9770.718434,-75996.673402,-148.041188
2389.169734,-11251.130318,-75230.577904,-7550.100608
2389.172295,7105.977043,-71093.662214,2368.659014
2389.174855,-8142.265362,-72932.291410,7402.059420
2389.177416,3997.112087,-73851.606007,14804.118840
2389.179977,9918.759623,-75230.577904,16284.530724
2389.182538,2072.576638,-76456.330700,14359.995275
2389.185099,6365.771101,-76456.330700,7846.182985
2389.187660,-8734.430116,-73698.386908,2960.823768
2389.190220,1332.370696,-71093.662214,592.164754
2389.192781,-1184.329507,-70787.224015,3256.906145
2389.195342,4737.318029,-71706.538613,7994.224174
2389.197903,3256.906145,-78907.836294,18357.107362
2389.200464,-12731.542202,-79367.493593,22946.384202
2389.203024,7698.141797,-78141.740796,33605.349767
2389.205585,-4589.276840,-78448.178995,-5329.482782
2389.208109,5033.400406,-73085.510509,7105.977043
2389.210632,2220.617826,-72166.195912,4737.318029
2389.213156,-2960.823768,-70327.566716,19689.478057
2389.215679,7698.141797,-80286.808190,12879.583391
2389.218203,-4589.276840,-72472.634111,7994.224174
2389.220726,6513.812290,-71246.881314,10955.047942
2389.223250,-3552.988522,-72012.976812,7994.224174
2389.225773,2072.576638,-71859.757712,11991.336260
2389.228297,-0.000000,-75996.673402,3108.864956
2389.230820,-6365.771101,-75230.577904,2220.617826
2389.233344,11843.295072,-74770.920605,6365.771101
2389.235867,3108.864956,-73391.948708,13915.871710
2389.238391,-1924.535449,-72932.291410,20725.766376
2389.240914,1036.288319,-76149.892501,1184.329507
2389.243438,-3849.070898,-76303.111601,-10807.006753
2389.245961,9178.553681,-76149.892501,-20429.683999
2389.248485,-1628.453072,-71859.757712,-7254.018232
2389.251008,444.123565,-70480.785816,-9178.553681
2389.253532,-4885.359217,-74464.482406,888.247130
2389.256055,-1332.370696,-76609.549800,-1332.370696
2389.258579,3849.070898,-78448.178995,592.164754
2389.261102,-5477.523971,-75230.577904,-3108.864956
2389.263626,5921.647536,-70634.004916,-5181.441594
2389.266149,-2220.617826,-70021.128517,-14063.912898
2389.268673,-1332.370696,-67569.622924,-22502.260637
2389.271196,-0.000000,-74311.263306,-29164.114115
2389.273720,-3108.864956,-75077.358804,-14804.118840
2389.276243,4441.235652,-79214.274493,10955.047942
2389.278767,-2220.617826,-74311.263306,16284.530724
2389.281290,3997.112087,-75077.358804,-1480.411884
2389.283814,592.164754,-71859.757712,-16284.530724
2389.286337,2072.576638,-71246.881314,-17320.819043
2389.288861,-444.123565,-76303.111601,-7254.018232
2389.291384,-7698.141797,-74770.920605,-5625.565159
2389.293908,1776.494261,-75690.235202,-2072.576638
2389.296431,-10066.800811,-73238.729609,5921.647536
2389.298955,10807.006753,-73698.386908,-6365.771101
2389.301478,-8438.347739,-75230.577904,740.205942
2389.304002,4293.194464,-74924.139704,-3404.947333
2389.306525,740.205942,-75230.577904,-2812.782580
2389.309068,-2072.576638,-74770.920605,-8438.347739
2389.311610,2664.741391,-71706.538613,3849.070898
2389.314153,-4145.153275,-72472.634111,10214.842000
2389.316695,3256.906145,-73391.948708,15840.407159
2389.319238,-148.041188,-75383.797003,20577.725188
2389.321780,7105.977043,-76609.549800,11251.130318
2389.324322,-148.041188,-77682.083497,5625.565159
2389.326865,-4737.318029,-74004.825107,1924.535449
2389.329407,-5921.647536,-70174.347617,2072.576638
2389.331950,9326.594869,-68182.499322,2664.741391
2389.334492,4589.276840,-73391.948708,8586.388927
2389.337035,9918.759623,-70940.443115,-1480.411884
2389.339577,-5033.400406,-74158.044206,-8142.265362
2389.342120,-4145.153275,-75690.235202,15692.365970
2389.344662,3404.947333,-75843.454302,5773.606348
2389.347204,-5329.482782,-71706.538613,-6957.935855
2389.349747,3849.070898,-67722.842023,-8438.347739
2389.352289,2960.823768,-75230.577904,15692.365970
2389.354832,-6217.729913,-78601.398095,6365.771101
2389.357374,1332.370696,-76456.330700,19245.354492
2389.359917,-296.082377,-74924.139704,10658.965565
2389.362459,2664.741391,-70634.004916,15692.365970
2389.365002,4589.276840,-73238.729609,7254.018232
2389.367544,-6661.853478,-75537.016103,-6217.729913
2389.370086,6661.853478,-74924.139704,-3256.906145
2389.372629,-2812.782580,-74924.139704,14804.118840
2389.375171,-2220.617826,-73238.729609,16136.489536
2389.377714,1628.453072,-74464.482406,14508.036463
2389.380256,-5773.606348,-76762.768900,-1924.535449
2389.382799,2812.782580,-76149.892501,-13915.871710
2389.385341,2072.576638,-73391.948708,-13027.624579
2389.387884,1628.453072,-70940.443115,-10955.047942
2389.390426,-12435.459826,-72625.853210,-1184.329507
2389.392968,6365.771101,-75383.797003,-1332.370696
2389.395511,-10214.842000,-76149.892501,-592.164754
2389.398053,9474.636058,-75383.797003,-5181.441594
2389.400596,-740.205942,-73085.510509,-148.041188
2389.403138,-1036.288319,-74617.701505,-5033.400406
2389.405681,4441.235652,-74770.920605,-2664.741391
2389.408223,-2664.741391,-73698.386908,-6957.935855
2389.410781,-888.247130,-74464.482406,-17616.901420
2389.413339,1776.494261,-73698.386908,17024.736666
2389.415897,7994.224174,-77988.521696,-7846.182985
2389.418454,-11547.212695,-70940.443115,-37602.461854
2389.421012,1480.411884,-76149.892501,7846.182985
2389.423570,14508.036463,-71706.538613,-18801.230927
2389.426128,-8734.430116,-73238.729609,-11103.089130
2389.428686,3997.112087,-76915.987999,-11399.171507
2389.431244,-444.123565,-72166.195912,-17468.860231
2389.433801,-7402.059420,-73238.729609,2960.823768
2389.436359,8438.347739,-72932.291410,-5033.400406
2389.438917,-10362.883188,-74004.825107,7550.100608
2389.441475,2368.659014,-76915.987999,-1924.535449
2389.444033,3552.988522,-74004.825107,-6809.894666
2389.446591,-3108.864956,-75537.016103,-5329.482782
2389.449148,-1480.411884,-72012.976812,-740.205942
2389.451706,592.164754,-71706.538613,9030.512492
2389.454264,1184.329507,-72779.072310,17468.860231
2389.456822,2072.576638,-75843.454302,23686.590144
2389.459380,4589.276840,-77835.302597,12879.583391
2389.461938,5625.565159,-77222.426198,5477.523971
2389.464495,-3997.112087,-75077.358804,592.164754
2389.467053,-6069.688724,-70787.224015,1184.329507
2389.469611,8586.388927,-69408.252119,3997.112087
2389.472169,740.205942,-75843.454302,12731.542202
2389.474727,5033.400406,-79827.150892,22798.343014
2389.477285,1480.411884,-75537.016103,31532.773129
2389.479842,2516.700203,-76762.768900,-7698.141797
2389.482400,-7402.059420,-74004.825107,-3997.112087
2389.484958,6217.729913,-70787.224015,26795.455100
2389.487516,3404.947333,-75077.358804,9326.594869
2389.490074,-4737.318029,-70787.224015,12139.377449
2389.492632,6217.729913,-77835.302597,10807.006753
2389.495189,-6661.853478,-77222.426198,15396.283594
2389.497747,3404.947333,-73391.948708,17320.819043
2389.500305,-1184.329507,-72319.415011,10955.047942
2389.502863,148.041188,-71400.100414,9178.553681
2389.505421,5329.482782,-75383.797003,-6809.894666
2389.507978,-592.164754,-73391.948708,2812.782580
2389.510536,10362.883188,-75383.797003,8142.265362
2389.513105,-8734.430116,-73851.606007,20429.683999
2389.515673,5033.400406,-74158.044206,1036.288319
2389.518242,4885.359217,-76149.892501,-7402.059420
2389.520811,-1628.453072,-73391.948708,-10658.965565
2389.523380,2812.782580,-71706.538613,-11399.171507
2389.525949,-1184.329507,-73545.167808,-5329.482782
2389.528518,-1036.288319,-75383.797003,-1036.288319
2389.531086,-1184.329507,-76456.330700,-0.000000
2389.533655,5477.523971,-76456.330700,740.205942
2389.536224,-10658.965565,-74924.139704,-1480.411884
2389.538793,3701.029710,-71400.100414,-7994.224174
2389.541362,-1184.329507,-74617.701505,-888.247130
2389.543930,-7254.018232,-76149.892501,7846.182985
2389.546499,8290.306550,-75383.797003,-13175.665768
2389.549068,-9770.718434,-74158.044206,10658.965565
2389.551637,4145.153275,-78907.836294,-2220.617826
2389.554206,-7105.977043,-77988.521696,7550.100608
2389.556775,-5773.606348,-76303.111601,5181.441594
2389.559343,592.164754,-75537.016103,-16876.695478
2389.561912,-4145.153275,-73545.167808,-13915.871710
2389.564481,-10658.965565,-76762.768900,-25167.002028
2389.567050,7550.100608,-73545.167808,-9622.677246
2389.569619,-1332.370696,-74464.482406,592.164754
2389.572187,-3552.988522,-70940.443115,2220.617826
2389.574756,9622.677246,-74004.825107,8586.388927
2389.577325,-11547.212695,-76762.768900,2220.617826
2389.579894,9918.759623,-74004.825107,-10214.842000
2389.582463,-1924.535449,-75230.577904,-10066.800811
2389.585031,-9474.636058,-72625.853210,-2812.782580
2389.587600,7698.141797,-72319.415011,8142.265362
2389.590169,-2812.782580,-73085.510509,18949.272115
2389.592738,9474.636058,-73391.948708,26795.455100
2389.595307,148.041188,-77682.083497,10955.047942
2389.597876,-296.082377,-77375.645298,2960.823768
2389.600444,-1628.453072,-75843.454302,-3256.906145
2389.603013,-5033.400406,-71400.100414,2664.741391
2389.605582,1332.370696,-72472.634111,6661.853478
2389.608151,1332.370696,-71400.100414,1184.329507
2389.610720,6661.853478,-77528.864398,8142.265362
2389.613288,-5033.400406,-75690.235202,-18949.272115
2389.615866,-11695.253884,-75690.235202,5181.441594
2389.618444,-1184.329507,-75230.577904,-592.164754
2389.621021,-2220.617826,-74158.044206,40563.285622
2389.623599,5477.523971,-73085.510509,6661.853478
2389.626176,-592.164754,-71706.538613,2664.741391
2389.628754,7254.018232,-78141.740796,9918.759623
2389.631331,2664.741391,-74464.482406,20281.642811
2389.633909,-148.041188,-73085.510509,20873.807564
2389.636487,3997.112087,-73698.386908,18653.189738
2389.639064,-6957.935855,-74158.044206,10658.965565
2389.641642,10066.800811,-76915.987999,4441.235652
2389.644219,-5329.482782,-75077.358804,4737.318029
2389.646797,-1480.411884,-75383.797003,10214.842000
2389.649375,-592.164754,-75230.577904,7846.182985
2389.651952,-3701.029710,-74617.701505,-2664.741391
2389.654530,6661.853478,-74311.263306,-14359.995275
2389.657107,-4145.153275,-72166.195912,-6365.771101
2389.659685,2220.617826,-72625.853210,-11991.336260
2389.662262,-10066.800811,-74770.920605,-2072.576638
2389.664840,6365.771101,-76915.987999,-4737.318029
2389.667418,-5181.441594,-75843.454302,296.082377
2389.669995,3701.029710,-75996.673402,-7402.059420
2389.672573,11695.253884,-69255.033019,-9178.553681
2389.675150,-11103.089130,-73851.606007,592.164754
2389.677728,5773.606348,-75230.577904,8734.430116
2389.680305,6069.688724,-74004.825107,-6365.771101
2389.682883,-7698.141797,-73698.386908,1036.288319
2389.685461,6513.812290,-74770.920605,13619.789333
2389.688038,592.164754,-77835.302597,4293.194464
2389.690616,-4293.194464,-73238.729609,-15988.448347
2389.693193,-740.205942,-71400.100414,-10066.800811
2389.695771,9326.594869,-73391.948708,-20725.766376
2389.698348,-14804.118840,-74464.482406,-7994.224174
2389.700926,3552.988522,-75690.235202,-12879.583391
2389.703504,-6809.894666,-73085.510509,-2220.617826
2389.706081,-1924.535449,-73545.167808,444.123565
2389.708659,7402.059420,-74617.701505,4885.359217
2389.711236,-16136.489536,-75843.454302,3552.988522
2389.713814,11547.212695,-75843.454302,-12287.418637
2389.716391,-5033.400406,-74617.701505,-5033.400406
2389.718976,-7254.018232,-72932.291410,-1332.370696
2389.721560,8438.347739,-72625.853210,6661.853478
2389.724145,-444.123565,-72625.853210,21465.972318
2389.726730,12139.377449,-74770.920605,25463.084405
2389.729314,-4293.194464,-77069.207099,13915.871710
2389.731899,3849.070898,-77069.207099,3701.029710
2389.734483,-1480.411884,-75690.235202,-3849.070898
2389.737068,-9622.677246,-72932.291410,2368.659014
2389.739652,5329.482782,-74158.044206,7846.182985
2389.742237,-6809.894666,-75690.235202,10214.842000
2389.744821,1184.329507,-77222.426198,13027.624579
2389.747406,-296.082377,-74311.263306,37158.338288
2389.749990,-3404.947333,-77682.083497,-888.247130
2389.752575,-10807.006753,-70940.443115,6809.894666
2389.755159,12287.418637,-73545.167808,32569.061448
2389.757744,-5625.565159,-69561.471218,-6661.853478
2389.760328,3108.864956,-74617.701505,24722.878463
2389.762913,296.082377,-77528.864398,6069.688724
2389.765497,-9770.718434,-75843.454302,25611.125593
2389.768082,13027.624579,-73238.729609,17024.736666
2389.770666,-8438.347739,-69867.909418,3849.070898
2389.773251,9622.677246,-73851.606007,6217.729913
2389.775835,-6661.853478,-73391.948708,6069.688724
2389.778420,740.205942,-74617.701505,888.247130
2389.781005,-1036.288319,-76762.768900,13175.665768
2389.783589,-4589.276840,-76456.330700,-296.082377
2389.786174,2516.700203,-72625.853210,-10066.800811
2389.788758,5181.441594,-71400.100414,-3997.112087
2389.791343,-7550.100608,-72319.415011,-4589.276840
2389.793927,-5773.606348,-75077.358804,-2516.700203
2389.796512,2516.700203,-76149.892501,-4441.235652
2389.799096,-3997.112087,-77375.645298,592.164754
2389.801681,10658.965565,-74924.139704,296.082377
2389.804265,-13175.665768,-70327.566716,592.164754
2389.806850,5625.565159,-74311.263306,-2812.782580
2389.809434,2664.741391,-74464.482406,6957.935855
2389.812019,4589.276840,-69867.909418,-6809.894666
2389.814603,2220.617826,-71400.100414,-20281.642811
2389.817188,296.082377,-75230.577904,25167.002028
2389.819772,4441.235652,-75996.673402,-29608.237680
2389.822361,-16432.571912,-70940.443115,2516.700203
2389.824949,-4737.318029,-79367.493593,1184.329507
2389.827538,-2072.576638,-72932.291410,-22946.384202
2389.830126,-13323.706956,-77682.083497,-9770.718434
2389.832715,-4885.359217,-74311.263306,-25611.125593
2389.835303,5329.482782,-72932.291410,-2368.659014
2389.837892,-4737.318029,-74004.825107,2664.741391
2389.840480,5033.400406,-73085.510509,5181.441594
2389.843069,-740.205942,-76762.768900,8438.347739
2389.845657,-2516.700203,-75996.673402,-6217.729913
2389.848246,2812.782580,-73085.510509,-11547.212695
2389.850834,-3849.070898,-71706.538613,-3849.070898
2389.853423,3108.864956,-72779.072310,2516.700203
2389.856011,5033.400406,-73085.510509,15544.324782
2389.858600,-1332.370696,-74770.920605,25167.002028
2389.861188,9622.677246,-75843.454302,13767.830521
2389.863777,2072.576638,-77222.426198,7254.018232
2389.866365,-3701.029710,-74770.920605,-3108.864956
2389.868954,-1776.494261,-71859.757712,-2072.576638
2389.871542,3404.947333,-68335.718422,-888.247130
2389.874131,-3701.029710,-73085.510509,14508.036463
2389.876719,7402.059420,-77988.521696,15248.242405
2389.879307,-7846.182985,-74004.825107,3108.864956
2389.881896,1332.370696,-77069.207099,6217.729913
2389.884484,6809.894666,-75690.235202,32717.102636
2389.887073,2960.823768,-72779.072310,24278.754898
2389.889661,1184.329507,-72166.195912,14804.118840
2389.892250,-2516.700203,-78601.398095,12435.459826
2389.894838,-5033.400406,-79980.369991,12287.418637
2389.897427,2220.617826,-78601.398095,19689.478057
2389.900015,4885.359217,-75077.358804,15248.242405
2389.902604,-2368.659014,-70634.004916,17172.777854
2389.905192,3701.029710,-74924.139704,10066.800811
2389.907781,-4293.194464,-74464.482406,6513.812290
2389.910369,-3108.864956,-76762.768900,4441.235652
2389.912958,-1924.535449,-77528.864398,-5181.441594
2389.915546,-2368.659014,-75383.797003,-2812.782580
2389.918135,6513.812290,-72166.195912,-14211.954086
2389.920723,296.082377,-70327.566716,-740.205942
2389.923312,-1332.370696,-72472.634111,-6365.771101
2389.925903,-9622.677246,-76303.111601,-7994.224174
2389.928495,4885.359217,-78141.740796,-6365.771101
2389.931086,-2812.782580,-74464.482406,-444.123565
2389.933678,8142.265362,-70940.443115,-2220.617826
2389.936269,3256.906145,-68488.937521,-4589.276840
2389.938861,-4885.359217,-72932.291410,-8142.265362
2389.941452,12435.459826,-76762.768900,17024.736666
2389.944044,6365.771101,-75537.016103,-8290.306550
2389.946635,-4589.276840,-71400.100414,2664.741391
2389.949227,20133.601622,-77069.207099,18949.272115
2389.951819,-2812.782580,-76303.111601,-19393.395680
2389.954410,-6661.853478,-73391.948708,296.082377
2389.957002,24278.754898,-70787.224015,-28571.949361
2389.959593,-16136.489536,-76762.768900,-11399.171507
2389.962185,3256.906145,-77682.083497,-4737.318029
2389.964776,4589.276840,-72625.853210,-11547.212695
2389.967368,-7105.977043,-73085.510509,7994.224174
2389.969959,16876.695478,-73545.167808,-2368.659014
2389.972551,-12435.459826,-76149.892501,10955.047942
2389.975142,18949.272115,-76456.330700,-2368.659014
2389.977734,-15100.201217,-74311.263306,-7994.224174
2389.980325,-6069.688724,-71093.662214,3552.988522
2389.982917,6069.688724,-73851.606007,2812.782580
2389.985509,-1332.370696,-73391.948708,16136.489536
2389.988100,10214.842000,-75230.577904,22206.178260
2389.990692,3849.070898,-75843.454302,11843.295072
2389.993283,2516.700203,-76303.111601,7402.059420
2389.995875,-9326.594869,-74617.701505,-148.041188
2389.998466,-3701.029710,-70174.347617,-4441.235652
2390.001058,8142.265362,-74004.825107,7698.141797
2390.003649,-3997.112087,-72779.072310,740.205942
2390.006241,7698.141797,-71093.662214,26351.331535
2390.008832,11103.089130,-79980.369991,13767.830521
2390.011424,-9770.718434,-72319.415011,9770.718434
2390.014015,21169.889941,-74158.044206,11103.089130
2390.016607,1332.370696,-76456.330700,-2960.823768
2390.019199,-6661.853478,-71859.757712,23686.590144
2390.021790,10510.924376,-80440.027290,11843.295072
2390.024382,-22206.178260,-77835.302597,17320.819043
2390.026973,14063.912898,-79827.150892,13471.748144
2390.029567,-9178.553681,-73085.510509,5625.565159
2390.032160,13471.748144,-75230.577904,17320.819043
2390.034754,740.205942,-70174.347617,4737.318029
2390.037347,-7254.018232,-74617.701505,7105.977043
2390.039941,1184.329507,-77682.083497,10510.924376
2390.042535,-9178.553681,-77375.645298,-4589.276840
2390.045128,7254.018232,-75230.577904,-6957.935855
2390.047722,592.164754,-71246.881314,-16432.571912
2390.050315,-740.205942,-70174.347617,1332.370696
2390.052909,-3256.906145,-72779.072310,-4737.318029
2390.055503,-4441.235652,-76762.768900,-2368.659014
2390.058096,3701.029710,-77375.645298,-4737.318029
2390.060690,296.082377,-76303.111601,-3997.112087
2390.063283,-2664.741391,-75383.797003,1184.329507
2390.065877,296.082377,-70327.566716,-7105.977043
2390.068471,-9918.759623,-72472.634111,-11251.130318
2390.071064,5329.482782,-77222.426198,-26795.455100
2390.073658,-1036.288319,-72625.853210,6513.812290
2390.076251,-1776.494261,-74617.701505,13619.789333
2390.078845,9770.718434,-76762.768900,11251.130318
2390.081438,-7254.018232,-74770.920605,-8142.265362
2390.084032,2960.823768,-72472.634111,-17912.983796
2390.086626,-1480.411884,-73238.729609,-17764.942608
2390.089219,3256.906145,-73698.386908,-11547.212695
2390.091813,1628.453072,-74770.920605,-10658.965565
2390.094406,-4737.318029,-72472.634111,740.205942
2390.097000,3997.112087,-73851.606007,1924.535449
2390.099594,-2664.741391,-75996.673402,8734.430116
2390.102187,10510.924376,-75690.235202,1924.535449
2390.104781,-10658.965565,-76456.330700,-10658.965565
2390.107374,2368.659014,-72166.195912,-4737.318029
2390.109968,-3256.906145,-73545.167808,444.123565
2390.112522,-2664.741391,-72932.291410,15248.242405
2390.115077,8438.347739,-73698.386908,17912.983796
2390.117631,6513.812290,-75230.577904,19097.313304
2390.120186,-4145.153275,-77835.302597,12879.583391
2390.122740,-6957.935855,-76762.768900,8290.306550
2390.125295,3701.029710,-74311.263306,-444.123565
2390.127849,-8882.471304,-75537.016103,5625.565159
2390.130403,2516.700203,-73851.606007,2072.576638
2390.132958,1184.329507,-72166.195912,-19985.560434
2390.135512,-10658.965565,-75077.358804,21910.095883
2390.138067,5477.523971,-78448.178995,9918.759623
2390.140621,-17468.860231,-72472.634111,-6069.688724
2390.143176,12139.377449,-71553.319513,25463.084405
2390.145730,-6069.688724,-71706.538613,-1480.411884
2390.148284,1036.288319,-75230.577904,24722.878463
2390.150839,12435.459826,-75690.235202,5181.441594
2390.153393,-19245.354492,-73391.948708,-148.041188
2390.155948,19245.354492,-73851.606007,13027.624579
2390.158502,-2516.700203,-70174.347617,6661.853478
2390.161057,4293.194464,-70940.443115,15840.407159
2390.163611,7846.182985,-73238.729609,5033.400406
2390.166166,-10807.006753,-75077.358804,5033.400406
2390.168720,3552.988522,-78141.740796,-9326.594869
2390.171274,592.164754,-75690.235202,-13767.830521
2390.173829,2812.782580,-70327.566716,-9918.759623
2390.176383,-740.205942,-69255.033019,-1184.329507
2390.178938,888.247130,-71400.100414,444.123565
2390.181492,-6365.771101,-77835.302597,148.041188
2390.184047,5625.565159,-79061.055394,-8142.265362
2390.186601,444.123565,-75843.454302,-6809.894666
2390.189156,-7105.977043,-74617.701505,148.041188
2390.191710,-3108.864956,-72012.976812,-3849.070898
2390.194264,-16876.695478,-73698.386908,-21910.095883
2390.196819,3256.906145,-76762.768900,18949.272115
2390.199373,8142.265362,-75690.235202,-2516.700203
2390.201928,1628.453072,-74004.825107,4441.235652
2390.204482,3404.947333,-73085.510509,-22354.219448
2390.207037,-7105.977043,-74617.701505,-1332.370696
2390.209591,7402.059420,-72932.291410,-13175.665768
2390.212145,296.082377,-74770.920605,-16580.613101
2390.214709,-7105.977043,-74464.482406,-7846.182985
2390.217273,8290.306550,-74311.263306,-14063.912898
2390.219836,-16580.613101,-73238.729609,-740.205942
2390.222400,12583.501014,-72472.634111,-1036.288319
2390.224963,-13323.706956,-75690.235202,9178.553681
2390.227527,5625.565159,-75077.358804,-6069.688724
2390.230090,-888.247130,-74924.139704,-10066.800811
2390.232654,-9918.759623,-72472.634111,-0.000000
2390.235217,6661.853478,-72625.853210,4293.194464
2390.237781,-1628.453072,-72779.072310,19837.519246
2390.240344,13175.665768,-74158.044206,22502.260637
2390.242908,3849.070898,-76456.330700,12879.583391
2390.245471,5773.606348,-76456.330700,1184.329507
2390.248035,-12435.459826,-74464.482406,3849.070898
2390.250598,3108.864956,-71246.881314,-148.041188
2390.253162,2516.700203,-70021.128517,592.164754
2390.255726,-5329.482782,-70174.347617,-16876.695478
2390.258289,2220.617826,-75537.016103,20281.642811
2390.260853,-5329.482782,-78448.178995,14656.077652
2390.263416,-5033.400406,-77222.426198,-9622.677246
2390.265980,1184.329507,-66190.651027,-10510.924376
2390.268543,6217.729913,-71706.538613,20133.601622
2390.271107,-296.082377,-73085.510509,12879.583391
2390.273670,1184.329507,-75537.016103,13323.706956
2390.276234,-4293.194464,-77988.521696,-1480.411884
2390.278797,9474.636058,-74770.920605,10362.883188
2390.281361,1924.535449,-72472.634111,6217.729913
2390.283924,-2516.700203,-70327.566716,13767.830521
2390.286488,7254.018232,-73085.510509,7698.141797
2390.289051,-13323.706956,-76149.892501,5921.647536
2390.291615,2664.741391,-77988.521696,-9030.512492
2390.294179,-6661.853478,-77528.864398,-14656.077652
2390.296742,6513.812290,-71400.100414,-16728.654289
2390.299306,4293.194464,-69101.813920,-1924.535449
2390.301869,-5181.441594,-72625.853210,-2072.576638
2390.304433,-6957.935855,-77069.207099,-2960.823768
2390.306996,6513.812290,-77528.864398,-7402.059420
2390.309560,-6217.729913,-77528.864398,-5921.647536
2390.312123,2960.823768,-75690.235202,3256.906145
2390.314687,-10658.965565,-69714.690318,-7698.141797
2390.317258,1480.411884,-70174.347617,-16284.530724
2390.319829,-444.123565,-76149.892501,-25315.043216
2390.322400,-8882.471304,-74158.044206,-888.247130
2390.324971,9770.718434,-76303.111601,-8586.388927
2390.327542,-5921.647536,-72319.415011,-3256.906145
2390.330113,148.041188,-75843.454302,148.041188
2390.332684,-4293.194464,-75230.577904,-13619.789333
2390.335255,-4145.153275,-73238.729609,-23982.672521
2390.337826,-4293.194464,-76303.111601,-21317.931130
2390.340397,3404.947333,-73238.729609,-9622.677246
2390.342968,-6365.771101,-74770.920605,6069.688724
2390.345539,888.247130,-73698.386908,10214.842000
2390.348110,-148.041188,-75996.673402,6661.853478
2390.350681,-2960.823768,-75537.016103,-3849.070898
2390.353252,5921.647536,-74311.263306,-11695.253884
2390.355823,-13915.871710,-72932.291410,-3256.906145
2390.358394,9770.718434,-72472.634111,2516.700203
2390.360965,4737.318029,-72625.853210,17468.860231
2390.363536,4441.235652,-75383.797003,20429.683999
2390.366107,2664.741391,-76915.987999,14063.912898
2390.368679,3997.112087,-74924.139704,1924.535449
2390.371250,-11991.336260,-72932.291410,-740.205942
2390.373821,-1332.370696,-67876.061123,-1480.411884
2390.376392,11843.295072,-73851.606007,12435.459826
2390.378963,-7105.977043,-74924.139704,5181.441594
2390.381534,11399.171507,-76915.987999,31976.896694
2390.384105,-2220.617826,-75996.673402,-2368.659014
2390.386676,-5329.482782,-76456.330700,-13175.665768
2390.389247,10066.800811,-71553.319513,21614.013506
2390.391818,-4589.276840,-72012.976812,15248.242405
2390.394389,3404.947333,-72012.976812,23834.631332
2390.396960,7254.018232,-74617.701505,3849.070898
2390.399531,-10214.842000,-77835.302597,-1776.494261
2390.402102,148.041188,-74311.263306,6809.894666
2390.404673,10955.047942,-72932.291410,1776.494261
2390.407244,-11399.171507,-70940.443115,25018.960840
2390.409815,11843.295072,-74770.920605,9474.636058
2390.412386,-14804.118840,-75690.235202,9178.553681
2390.414957,5477.523971,-78907.836294,-12879.583391
2390.417528,9622.677246,-75230.577904,-18505.148550
2390.420104,2960.823768,-69408.252119,-4737.318029
2390.422680,-5181.441594,-70174.347617,-5477.523971
2390.425256,-3108.864956,-72625.853210,4589.276840
2390.427833,-2072.576638,-78448.178995,-1480.411884
2390.430409,444.123565,-76762.768900,-4737.318029
2390.432985,6661.853478,-74464.482406,-6661.853478
2390.435561,-444.123565,-69561.471218,-6217.729913
2390.438137,1332.370696,-75537.016103,16728.654289
2390.440713,-4145.153275,-74464.482406,-16432.571912
2390.443289,-4885.359217,-74004.825107,-11103.089130
2390.445865,8734.430116,-80286.808190,40267.203245
2390.448441,3108.864956,-75230.577904,-50037.921679
2390.451017,-8290.306550,-74311.263306,10658.965565
2390.453593,5477.523971,-76149.892501,-14211.954086
2390.456170,-1924.535449,-69408.252119,-24278.754898
2390.458746,6069.688724,-78907.836294,1184.329507
2390.461322,-148.041188,-72932.291410,-28275.866984
2390.463898,-4737.318029,-75996.673402,7846.182985
2390.466474,4441.235652,-72625.853210,-4589.276840
2390.469050,-11991.336260,-74464.482406,11399.171507
2390.471626,15840.407159,-75230.577904,3701.029710
2390.474202,-888.247130,-73085.510509,-888.247130
2390.476778,-6069.688724,-73545.167808,-1480.411884
2390.479354,5477.523971,-72779.072310,592.164754
2390.481930,1628.453072,-72625.853210,18209.066173
2390.484507,8734.430116,-74311.263306,23242.466579
2390.487083,7698.141797,-75996.673402,11399.171507
2390.489659,-740.205942,-75690.235202,9474.636058
2390.492235,-3997.112087,-76149.892501,4885.359217
2390.494811,1924.535449,-70021.128517,592.164754
2390.497387,9326.594869,-68182.499322,-592.164754
2390.499963,4737.318029,-74617.701505,1776.494261
2390.502539,2368.659014,-72779.072310,1924.535449
2390.505115,888.247130,-77528.864398,13767.830521
2390.507691,-3701.029710,-77988.521696,14211.954086
2390.510268,1628.453072,-76915.987999,12287.418637
2390.512844,9918.759623,-70021.128517,16580.613101
2390.515420,2812.782580,-73545.167808,13619.789333
2390.517996,592.164754,-75537.016103,6661.853478
2390.520572,11251.130318,-77835.302597,13915.871710
2390.523153,-6661.853478,-75077.358804,8142.265362
2390.525733,14508.036463,-71093.662214,10955.047942
2390.528313,-1036.288319,-70021.128517,16580.613101
2390.530893,-5181.441594,-73085.510509,7698.141797
2390.533474,3552.988522,-77375.645298,-6513.812290
2390.536054,-5625.565159,-78141.740796,-14508.036463
2390.538634,3701.029710,-74158.044206,-19541.436869
2390.541214,4737.318029,-69714.690318,-1776.494261
2390.543795,-5921.647536,-69408.252119,-2960.823768
2390.546375,-5181.441594,-73085.510509,4293.194464
2390.548955,2368.659014,-79214.274493,-4441.235652
2390.551535,-8586.388927,-79827.150892,-6217.729913
2390.554115,8438.347739,-78141.740796,-1332.370696
2390.556696,-2220.617826,-70480.785816,-7994.224174
2390.559276,-444.123565,-69561.471218,-7550.100608
2390.561856,-4589.276840,-72779.072310,-26055.249158
2390.564436,3701.029710,-72625.853210,11547.212695
2390.567017,7105.977043,-77375.645298,-23686.590144
2390.569597,-4885.359217,-74158.044206,-16284.530724
2390.572177,-3404.947333,-74311.263306,5033.400406
2390.574757,444.123565,-68642.156621,-24722.878463
2390.577338,148.041188,-70327.566716,-10066.800811
2390.579918,1628.453072,-72932.291410,-29016.072926
2390.582498,-2516.700203,-74158.044206,-7105.977043
2390.585078,4145.153275,-75383.797003,-2516.700203
2390.587659,-8586.388927,-72166.195912,10658.965565
2390.590239,13915.871710,-74311.263306,7105.977043
2390.592819,-7550.100608,-75690.235202,-9178.553681
2390.595399,4885.359217,-73851.606007,1776.494261
2390.597979,-3256.906145,-74617.701505,-1776.494261
2390.600560,-1332.370696,-72472.634111,11251.130318
2390.603140,8734.430116,-72779.072310,18653.189738
2390.605720,4589.276840,-74004.825107,18801.230927
2390.608300,-3108.864956,-76915.987999,12139.377449
2390.610881,1036.288319,-75843.454302,4293.194464
2390.613461,-3997.112087,-74158.044206,1036.288319
2390.616041,-7994.224174,-70480.785816,2664.741391
2390.618621,20725.766376,-74311.263306,14952.160028
2390.621202,-6957.935855,-74617.701505,-19097.313304
2390.623782,8142.265362,-73698.386908,6809.894666
2390.626364,-3701.029710,-77069.207099,19245.354492
2390.628947,-11103.089130,-76762.768900,25463.084405
2390.631529,11399.171507,-73545.167808,18209.066173
2390.634111,-7254.018232,-71400.100414,16136.489536
2390.636694,1776.494261,-74311.263306,3849.070898
2390.639276,3849.070898,-76915.987999,3108.864956
2390.641859,-3997.112087,-75843.454302,9918.759623
2390.644441,17320.819043,-73545.167808,7698.141797
2390.647023,-1776.494261,-71093.662214,21910.095883
2390.649606,-6365.771101,-73085.510509,13619.789333
2390.652188,-740.205942,-76303.111601,1036.288319
2390.654771,-7254.018232,-79061.055394,-13323.706956
2390.657353,1776.494261,-76303.111601,-22354.219448
2390.659936,8438.347739,-71400.100414,-11103.089130
2390.662518,-2812.782580,-68948.594820,-4441.235652
2390.665100,-6957.935855,-71093.662214,3108.864956
2390.667683,5625.565159,-77835.302597,-2220.617826
2390.670265,-4441.235652,-78141.740796,-2220.617826
2390.672848,14211.954086,-74004.825107,-11399.171507
2390.675430,-4145.153275,-74158.044206,5033.400406
2390.678012,4589.276840,-69408.252119,-592.164754
2390.680595,-1036.288319,-69408.252119,-9178.553681
2390.683177,-10807.006753,-71093.662214,-32569.061448
2390.685760,-7105.977043,-75230.577904,-3849.070898
2390.688342,13175.665768,-82585.094684,10807.006753
2390.690924,-7846.182985,-74158.044206,-15100.201217
2390.693507,-5329.482782,-74004.825107,-2220.617826
2390.696089,-4293.194464,-72932.291410,-27387.619854
2390.698672,-888.247130,-75077.358804,-4145.153275
2390.701254,1776.494261,-75843.454302,-17320.819043
2390.703837,-4589.276840,-75383.797003,1036.288319
2390.706419,5477.523971,-76456.330700,17024.736666
2390.709001,-5329.482782,-73545.167808,6513.812290
2390.711584,2812.782580,-73545.167808,-5625.565159
2390.714166,-4293.194464,-74158.044206,1184.329507
2390.716749,2516.700203,-73545.167808,-2516.700203
2390.719331,-1628.453072,-72932.291410,12287.418637
2390.721913,5921.647536,-73545.167808,15988.448347
2390.724496,9770.718434,-74924.139704,17024.736666
2390.727078,-5181.441594,-76149.892501,14063.912898
2390.729662,3256.906145,-75996.673402,5033.400406
2390.732246,-7550.100608,-75843.454302,3552.988522
2390.734830,-1036.288319,-70480.785816,-6809.894666
2390.737414,11991.336260,-74004.825107,-10362.883188
2390.739998,-6069.688724,-74158.044206,12435.459826
2390.742582,1776.494261,-75537.016103,11251.130318
2390.745166,-6513.812290,-80593.246390,20281.642811
2390.747750,1184.329507,-72472.634111,15692.365970
2390.750334,6069.688724,-70634.004916,14804.118840
2390.752918,5477.523971,-71400.100414,21465.972318
2390.755502,3849.070898,-74924.139704,9770.718434
2390.758086,3701.029710,-77375.645298,15840.407159
2390.760670,6217.729913,-76456.330700,7994.224174
2390.763254,-3997.112087,-71706.538613,17616.901420
2390.765838,10955.047942,-71246.881314,12139.377449
2390.768422,-4737.318029,-73545.167808,12731.542202
2390.771006,-3849.070898,-76762.768900,-12731.542202
2390.773590,-888.247130,-78907.836294,-15100.201217
2390.776174,3404.947333,-75537.016103,-16580.613101
2390.778758,5921.647536,-70174.347617,-3256.906145
2390.781342,-2516.700203,-70480.785816,1924.535449
2390.783926,-8142.265362,-74617.701505,-3108.864956
2390.786510,2072.576638,-79214.274493,-3997.112087
2390.789094,-3997.112087,-79367.493593,-6809.894666
2390.791678,5181.441594,-78294.959896,1036.288319
2390.794262,-3701.029710,-74004.825107,-2368.659014
2390.796846,-8438.347739,-68795.375720,4737.318029
2390.799430,7698.141797,-74311.263306,3552.988522
2390.802014,-5329.482782,-76149.892501,-20577.725188
2390.804598,-3701.029710,-77835.302597,2072.576638
2390.807182,13175.665768,-76303.111601,-8142.265362
2390.809766,-14063.912898,-72012.976812,-10066.800811
2390.812350,3108.864956,-72932.291410,-7105.977043
2390.814934,-4885.359217,-73545.167808,-14508.036463
2390.817518,148.041188,-75996.673402,-4293.194464
2390.820102,4885.359217,-76456.330700,-8734.430116
2390.822686,-5033.400406,-73545.167808,9030.512492
2390.825270,11547.212695,-73851.606007,9030.512492
2390.827854,-13767.830521,-73545.167808,-5033.400406
2390.830438,4885.359217,-73545.167808,2812.782580
2390.833023,-5329.482782,-76149.892501,1480.411884
2390.835609,-148.041188,-72625.853210,6217.729913
2390.838194,8142.265362,-73238.729609,18357.107362
2390.840779,2812.782580,-75077.358804,17616.901420
2390.843364,-5329.482782,-75230.577904,11547.212695
2390.845950,5625.565159,-75383.797003,5033.400406
2390.848535,-12731.542202,-70021.128517,592.164754
2390.851120,9030.512492,-73238.729609,9918.759623
2390.853705,2812.782580,-72012.976812,21910.095883
2390.856290,1480.411884,-75996.673402,13323.706956
2390.858876,12287.418637,-73238.729609,2220.617826
2390.861461,-4737.318029,-75996.673402,-18209.066173
2390.864046,5477.523971,-73391.948708,10066.800811
2390.866631,-1184.329507,-71246.881314,21762.054695
2390.869217,6069.688724,-69714.690318,23834.631332
2390.871802,-2220.617826,-74770.920605,7994.224174
2390.874387,-9622.677246,-76149.892501,592.164754
2390.876972,18357.107362,-74924.139704,1924.535449
2390.879558,-1924.535449,-72472.634111,6069.688724
2390.882143,5329.482782,-69714.690318,14063.912898
2390.884728,-2960.823768,-74924.139704,17764.942608
2390.887313,-8142.265362,-75537.016103,-4737.318029
2390.889898,1332.370696,-78294.959896,-19837.519246
2390.892484,-296.082377,-74158.044206,-19541.436869
2390.895069,6661.853478,-69408.252119,-5329.482782
2390.897654,-1924.535449,-70480.785816,1628.453072
2390.900239,-4885.359217,-74004.825107,-444.123565
2390.902825,4145.153275,-79061.055394,-1776.494261
2390.905410,-4589.276840,-79061.055394,-7105.977043
2390.907995,3108.864956,-77222.426198,-1628.453072
2390.910580,-3701.029710,-75843.454302,15396.283594
2390.913166,9178.553681,-68795.375720,-9918.759623
2390.915751,-2516.700203,-74311.263306,-37158.338288
2390.918336,-14508.036463,-71859.757712,17468.860231
2390.920921,21762.054695,-86568.791274,5477.523971
2390.923506,-31828.855506,-73238.729609,-18357.107362
2390.926092,16876.695478,-74004.825107,-5181.441594
2390.928677,-23242.466579,-70634.004916,-24722.878463
2390.931262,5773.606348,-75843.454302,5921.647536
2390.933847,-2220.617826,-75996.673402,-22798.343014
2390.936433,-20133.601622,-74158.044206,-2220.617826
2390.939019,17912.983796,-76149.892501,7846.182985
2390.941605,-14804.118840,-71553.319513,4145.153275
2390.944191,20133.601622,-72012.976812,-2960.823768
2390.946777,-14952.160028,-72779.072310,740.205942
2390.949363,3256.906145,-74004.825107,1776.494261
2390.951949,-2072.576638,-74617.701505,13767.830521
2390.954535,-2516.700203,-73851.606007,19689.478057
2390.957121,15544.324782,-74004.825107,17468.860231
2390.959707,-9918.759623,-76609.549800,9918.759623
2390.962293,9326.594869,-74464.482406,6513.812290
2390.964879,-12731.542202,-77835.302597,3997.112087
2390.967465,-6513.812290,-76456.330700,12879.583391
2390.970051,14211.954086,-73545.167808,20133.601622
2390.972637,-7550.100608,-76456.330700,3256.906145
2390.975223,-2812.782580,-73391.948708,-11991.336260
2390.977809,2960.823768,-72472.634111,-13027.624579
2390.980395,-6957.935855,-72472.634111,19689.478057
2390.982981,12879.583391,-70174.347617,17764.942608
2390.985567,-5477.523971,-70940.443115,16136.489536
2390.988153,13027.624579,-75843.454302,6069.688724
2390.990739,-6957.935855,-74924.139704,4441.235652
2390.993324,-8438.347739,-73698.386908,9326.594869
2390.995910,17024.736666,-71706.538613,12139.377449
2390.998496,-17024.736666,-72779.072310,11547.212695
2391.001082,11251.130318,-74464.482406,-6365.771101
2391.003668,-9770.718434,-77988.521696,-18357.107362
2391.006254,2516.700203,-76456.330700,-22798.343014
2391.008840,3552.988522,-70634.004916,-5181.441594
2391.011426,-4885.359217,-70787.224015,1184.329507
2391.014012,-8438.347739,-73085.510509,1184.329507
2391.016598,5181.441594,-78448.178995,-1332.370696
2391.019184,-6365.771101,-77528.864398,-11103.089130
2391.021770,10362.883188,-77528.864398,-7550.100608
2391.024356,-6513.812290,-71400.100414,-16432.571912
2391.026942,-2960.823768,-68795.375720,-11695.253884
2391.029528,3108.864956,-73391.948708,13175.665768
2391.032114,-6809.894666,-77835.302597,-13323.706956
2391.034700,-3849.070898,-76915.987999,-1332.370696
2391.037286,2368.659014,-78754.617194,-13323.706956
2391.039872,-6217.729913,-73545.167808,-9178.553681
2391.042459,-888.247130,-72472.634111,-7402.059420
2391.045045,-3108.864956,-72625.853210,-14211.954086
2391.047632,5033.400406,-76456.330700,-2960.823768
2391.050218,-148.041188,-78141.740796,-6661.853478
2391.052805,-9770.718434,-74617.701505,7402.059420
2391.055391,11103.089130,-73391.948708,4589.276840
2391.057977,-2960.823768,-71400.100414,-9622.677246
2391.060564,-3849.070898,-72319.415011,5329.482782
2391.063150,2368.659014,-75537.016103,1036.288319
2391.065737,-4589.276840,-74924.139704,13767.830521
2391.068323,6661.853478,-73698.386908,17764.942608
2391.070910,4589.276840,-74770.920605,15840.407159
2391.073496,-1036.288319,-74464.482406,9326.594869
2391.076083,1332.370696,-76303.111601,6069.688724
2391.078669,-9622.677246,-71553.319513,-3701.029710
2391.081255,888.247130,-73545.167808,12287.418637
2391.083842,8734.430116,-75843.454302,-11547.212695
2391.086428,-6957.935855,-72319.415011,2960.823768
2391.089015,4145.153275,-74770.920605,13323.706956
2391.091601,-1924.535449,-79520.712692,22502.260637
2391.094188,-7846.182985,-73698.386908,14211.954086
2391.096774,12287.418637,-73238.729609,23094.425390
2391.099361,-11991.336260,-74924.139704,8734.430116
2391.101947,2368.659014,-76456.330700,20281.642811
2391.104534,10066.800811,-77988.521696,7550.100608
2391.107120,-9770.718434,-73238.729609,15100.201217
2391.109706,2812.782580,-73851.606007,12139.377449
2391.112293,296.082377,-73851.606007,14952.160028
2391.114879,-7698.141797,-75690.235202,-6809.894666
2391.117466,-148.041188,-78141.740796,-16728.654289
2391.120052,2960.823768,-75383.797003,-17320.819043
2391.122639,6809.894666,-72319.415011,-4145.153275
2391.125225,-5921.647536,-71246.881314,296.082377
2391.127812,-7698.141797,-75230.577904,-592.164754
2391.130398,5181.441594,-77835.302597,888.247130
2391.132984,1480.411884,-76609.549800,-7698.141797
2391.135571,444.123565,-75230.577904,-9474.636058
2391.138157,-9030.512492,-71246.881314,-18653.189738
2391.140744,-3701.029710,-72012.976812,27387.619854
2391.143293,1480.411884,-77528.864398,-3701.029710
2391.145843,-11695.253884,-75383.797003,-740.205942
2391.148392,9918.759623,-79980.369991,740.205942
2391.150942,-5181.441594,-74617.701505,-30052.361245
2391.153492,-6661.853478,-74158.044206,-1036.288319
2391.156041,12435.459826,-70021.128517,-18949.272115
2391.158591,-6217.729913,-70174.347617,1628.453072
2391.161140,10362.883188,-78294.959896,-9622.677246
2391.163690,-8142.265362,-75077.358804,-3404.947333
2391.166239,11399.171507,-77069.207099,5773.606348
2391.168789,-6365.771101,-72779.072310,-2368.659014
2391.171338,3849.070898,-71093.662214,6809.894666
2391.173888,-1776.494261,-73851.606007,4737.318029
2391.176437,-4885.359217,-75996.673402,9030.512492
2391.178987,6957.935855,-75537.016103,14063.912898
2391.181537,3108.864956,-74617.701505,17320.819043
2391.184086,740.205942,-74004.825107,17912.983796
2391.186636,6957.935855,-73238.729609,5329.482782
2391.189185,-8438.347739,-71246.881314,5625.565159
2391.191735,-2812.782580,-77069.207099,13175.665768
2391.194284,3849.070898,-73391.948708,19245.354492
2391.196834,-5477.523971,-75843.454302,-0.000000
2391.199383,5181.441594,-77222.426198,-1628.453072
2391.201933,-4737.318029,-78141.740796,26499.372724
2391.204482,-5477.523971,-72166.195912,12879.583391
2391.207032,888.247130,-73238.729609,23242.466579
2391.209582,-3108.864956,-76303.111601,20725.766376
2391.212131,592.164754,-77682.083497,9918.759623
2391.214681,5921.647536,-78141.740796,17172.777854
2391.217230,-3701.029710,-74004.825107,3849.070898
2391.219780,9178.553681,-71400.100414,13915.871710
2391.222329,-592.164754,-73391.948708,11843.295072
2391.224879,-5033.400406,-74158.044206,-8290.306550
2391.227428,1924.535449,-77069.207099,-18209.066173
2391.229978,-592.164754,-75537.016103,-20281.642811
2391.232527,4737.318029,-72319.415011,-7105.977043
2391.235077,-5329.482782,-71093.662214,2072.576638
2391.237627,-888.247130,-72625.853210,1332.370696
2391.240176,2664.741391,-77682.083497,-0.000000
2391.242726,-4885.359217,-79520.712692,-11103.089130
2391.245282,-1924.535449,-76303.111601,-7105.977043
2391.247839,-148.041188,-76609.549800,14508.036463
2391.250396,3997.112087,-71859.757712,-15248.242405
2391.252952,-4885.359217,-69714.690318,4441.235652
2391.255509,7698.141797,-78294.959896,-3256.906145
2391.258066,-5033.400406,-77528.864398,-3552.988522
2391.260622,592.164754,-79061.055394,-2516.700203
2391.263179,-10362.883188,-70327.566716,-15988.448347
2391.265736,-5921.647536,-69408.252119,-12731.542202
2391.268293,148.041188,-74004.825107,-14656.077652
2391.270849,-4589.276840,-74617.701505,-9030.512492
2391.273406,-2072.576638,-78141.740796,-296.082377
2391.275963,-0.000000,-75690.235202,1480.411884
2391.278519,1628.453072,-73698.386908,5033.400406
2391.281076,-4293.194464,-70787.224015,13175.665768
2391.283633,3997.112087,-74004.825107,5181.441594
2391.286189,-5181.441594,-75077.358804,9030.512492
2391.288746,8882.471304,-75230.577904,6957.935855
2391.291303,-888.247130,-75383.797003,19245.354492
2391.293859,7402.059420,-74924.139704,16284.530724
2391.296416,-2516.700203,-73085.510509,10955.047942
2391.298973,-9326.594869,-70327.566716,8142.265362
2391.301529,8290.306550,-74464.482406,9474.636058
2391.304086,-10066.800811,-75230.577904,7550.100608
2391.306643,11399.171507,-72779.072310,-6513.812290
2391.309200,-1628.453072,-74004.825107,18061.024985
2391.311756,-3552.988522,-73851.606007,-14063.912898
2391.314313,2664.741391,-72166.195912,17764.942608
2391.316870,4293.194464,-73085.510509,23242.466579
2391.319426,-2072.576638,-75690.235202,11547.212695
2391.321983,-4885.359217,-76915.987999,19541.436869
2391.324540,4589.276840,-77835.302597,6661.853478
2391.327102,-4145.153275,-72472.634111,10510.924376
2391.329665,6661.853478,-73085.510509,5477.523971
2391.332228,-444.123565,-72625.853210,13767.830521
2391.334790,-5329.482782,-76762.768900,-5625.565159
2391.337353,2220.617826,-76915.987999,-14508.036463
2391.339916,-0.000000,-74617.701505,-15248.242405
2391.342478,-888.247130,-71706.538613,-5477.523971
2391.345041,-1036.288319,-71859.757712,1036.288319
2391.347604,-5921.647536,-74770.920605,-740.205942
2391.350166,7698.141797,-77375.645298,1184.329507
2391.352729,-2664.741391,-79367.493593,-7846.182985
2391.355292,-6809.894666,-75537.016103,444.123565
2391.357854,2812.782580,-73391.948708,16876.695478
2391.360417,-4441.235652,-72319.415011,-20873.807564
2391.362980,-5033.400406,-72779.072310,-5773.606348
2391.365542,6365.771101,-78907.836294,13619.789333
2391.368105,-6365.771101,-78754.617194,-11695.253884
2391.370668,-148.041188,-75996.673402,-10214.842000
2391.373230,5625.565159,-70940.443115,-14211.954086
2391.375793,-6661.853478,-70021.128517,-19689.478057
2391.378356,2812.782580,-73085.510509,-5181.441594
2391.380918,-2960.823768,-76149.892501,-7994.224174
2391.383481,-888.247130,-76915.987999,5921.647536
2391.386044,2516.700203,-75537.016103,2516.700203
2391.388606,-2072.576638,-70787.224015,592.164754
2391.391169,-1924.535449,-71093.662214,8586.388927
2391.393732,-2812.782580,-74004.825107,7254.018232
2391.396294,8438.347739,-74770.920605,10510.924376
2391.398857,-1628.453072,-76609.549800,17468.860231
2391.401420,10658.965565,-75230.577904,11251.130318
2391.403983,-5329.482782,-72932.291410,12139.377449
2391.406545,740.205942,-70021.128517,2960.823768
2391.409108,2664.741391,-73391.948708,18505.148550
2391.411671,-888.247130,-73851.606007,22206.178260
2391.414233,10510.924376,-79214.274493,10066.800811
2391.416796,-10066.800811,-74004.825107,18357.107362
2391.419359,26499.372724,-77528.864398,30052.361245
2391.421921,-17024.736666,-76609.549800,148.041188
2391.424484,11991.336260,-71246.881314,36714.214723
2391.427047,8142.265362,-75077.358804,10807.006753
2391.429613,-23390.507767,-72932.291410,12287.418637
2391.432180,20873.807564,-78754.617194,18949.272115
2391.434747,-16136.489536,-75230.577904,13471.748144
2391.437314,20873.807564,-73085.510509,11547.212695
2391.439881,-13027.624579,-73851.606007,9474.636058
2391.442448,3849.070898,-75383.797003,-3849.070898
2391.445014,4441.235652,-77835.302597,-15840.407159
2391.447581,-4737.318029,-74004.825107,-19985.560434
2391.450148,9326.594869,-72625.853210,-5033.400406
2391.452715,-9474.636058,-72166.195912,2664.741391
2391.455282,-2664.741391,-73851.606007,-2220.617826
2391.457849,1924.535449,-77682.083497,2220.617826
2391.460415,-1480.411884,-78141.740796,-5625.565159
2391.462982,-4589.276840,-76762.768900,-9622.677246
2391.465549,-5477.523971,-71859.757712,-19245.354492
2391.468116,-10658.965565,-69561.471218,2664.741391
2391.470683,1332.370696,-71400.100414,9770.718434
2391.473250,-1480.411884,-73545.167808,-22502.260637
2391.475816,-296.082377,-81665.780087,-11103.089130
2391.478383,-13027.624579,-79980.369991,-14063.912898
2391.480950,-2220.617826,-71246.881314,-10658.965565
2391.483517,4737.318029,-71246.881314,-9178.553681
2391.486084,-5329.482782,-72166.195912,-7254.018232
2391.488651,2960.823768,-77835.302597,-1036.288319
2391.491218,-5329.482782,-78754.617194,-8586.388927
2391.493784,740.205942,-74770.920605,1036.288319
2391.496351,3256.906145,-73391.948708,4441.235652
2391.498918,-5625.565159,-69101.813920,11843.295072
2391.501485,2812.782580,-72932.291410,10362.883188
2391.504052,888.247130,-74924.139704,12139.377449
2391.506619,-0.000000,-76609.549800,13915.871710
2391.509185,3849.070898,-75383.797003,11547.212695
2391.511752,-3997.112087,-72166.195912,10955.047942
2391.514319,-296.082377,-69561.471218,6217.729913
2391.516886,7105.977043,-69714.690318,9918.759623
2391.519453,7698.141797,-74617.701505,12435.459826
2391.522020,-2072.576638,-73238.729609,-9326.594869
2391.524586,1184.329507,-76762.768900,7254.018232
2391.527153,888.247130,-72932.291410,-9622.677246
2391.529720,-444.123565,-72779.072310,26055.249158
2391.532290,7550.100608,-71859.757712,18653.189738
2391.534860,2812.782580,-72779.072310,16580.613101
2391.537430,6809.894666,-77375.645298,6365.771101
2391.540000,5921.647536,-74004.825107,7254.018232
2391.542571,3552.988522,-71859.757712,11695.253884
2391.545141,888.247130,-73085.510509,8882.471304
2391.547711,444.123565,-73085.510509,7846.182985
2391.550281,-2960.823768,-77375.645298,-6513.812290
2391.552851,2220.617826,-76915.987999,-17468.860231
2391.555422,1776.494261,-74924.139704,-13915.871710
2391.557992,-2368.659014,-71553.319513,-4737.318029
2391.560562,-1184.329507,-71553.319513,2516.700203
2391.563132,-5921.647536,-76303.111601,1628.453072
2391.565702,1776.494261,-76609.549800,-5773.606348
2391.568273,10362.883188,-77375.645298,-7698.141797
2391.570843,-10066.800811,-71400.100414,-28275.866984
2391.573413,2220.617826,-68795.375720,-17616.901420
2391.575983,-1184.329507,-72319.415011,17172.777854
2391.578553,-3849.070898,-73851.606007,-10955.047942
2391.581124,5033.400406,-75077.358804,-3256.906145
2391.583694,-2960.823768,-78601.398095,-9030.512492
2391.586264,-4737.318029,-72166.195912,-23982.672521
2391.588834,3701.029710,-68488.937521,-8586.388927
2391.591404,-9178.553681,-68795.375720,-18505.148550
2391.593975,-444.123565,-73391.948708,-3701.029710
2391.596545,-2072.576638,-79214.274493,-9030.512492
2391.599115,1036.288319,-76915.987999,-1776.494261
2391.601685,-0.000000,-73851.606007,-1776.494261
2391.604255,-3701.029710,-70480.785816,15988.448347
2391.606826,5329.482782,-71553.319513,10955.047942
2391.609396,-2664.741391,-74924.139704,14804.118840
2391.611966,7254.018232,-75537.016103,7994.224174
2391.614536,4145.153275,-76609.549800,12583.501014
2391.617106,3404.947333,-76149.892501,13027.624579
2391.619677,2516.700203,-74617.701505,15840.407159
2391.622247,1332.370696,-72779.072310,12879.583391
2391.624817,-3997.112087,-73085.510509,4589.276840
2391.627387,4441.235652,-75077.358804,18209.066173
2391.629957,5329.482782,-76762.768900,-6809.894666
2391.632528,-13619.789333,-75077.358804,-11103.089130
2391.635101,10214.842000,-73698.386908,19245.354492
2391.637674,-4441.235652,-71400.100414,19393.395680
2391.640247,-2812.782580,-72319.415011,25167.002028
2391.642820,5921.647536,-78448.178995,14508.036463
2391.645393,2220.617826,-75230.577904,4589.276840
2391.647966,10362.883188,-75690.235202,11103.089130
2391.650539,-444.123565,-71859.757712,7846.182985
2391.653112,3701.029710,-71553.319513,14063.912898
2391.655685,-2072.576638,-75230.577904,-6809.894666
2391.658258,-740.205942,-75537.016103,-17616.901420
2391.660831,5625.565159,-73698.386908,-19393.395680
2391.663404,444.123565,-71859.757712,-9178.553681
2391.665977,-6365.771101,-72472.634111,1628.453072
2391.668550,-6957.935855,-74770.920605,444.123565
2391.671124,5329.482782,-75843.454302,296.082377
2391.673697,-296.082377,-74311.263306,-11399.171507
2391.676270,7550.100608,-74004.825107,-3552.988522
2391.678843,8438.347739,-74464.482406,19985.560434
2391.681416,-9474.636058,-72625.853210,-18061.024985
2391.683989,5773.606348,-72779.072310,11103.089130
2391.686562,7698.141797,-75537.016103,-27387.619854
2391.689135,-7105.977043,-77069.207099,-1036.288319
2391.691708,10066.800811,-77682.083497,-14804.118840
2391.694281,-9770.718434,-67263.184724,-15100.201217
2391.696854,-592.164754,-71553.319513,2960.823768
2391.699427,6217.729913,-74158.044206,-14063.912898
2391.702000,-3256.906145,-75690.235202,-1628.453072
2391.704573,10066.800811,-78907.836294,-6957.935855
2391.707146,-14804.118840,-74311.263306,-1924.535449
2391.709720,16284.530724,-71400.100414,14508.036463
2391.712293,-12139.377449,-71553.319513,17024.736666
2391.714866,10807.006753,-72625.853210,13027.624579
2391.717439,2664.741391,-77222.426198,15100.201217
2391.720012,3552.988522,-76456.330700,7105.977043
2391.722585,740.205942,-75996.673402,11843.295072
2391.725158,-1480.411884,-75690.235202,10362.883188
2391.727731,-4885.359217,-70021.128517,10807.006753
2391.730304,2368.659014,-73851.606007,13619.789333
2391.732877,3256.906145,-74770.920605,-24426.796086
2391.735450,-5477.523971,-74464.482406,29904.320057
2391.738025,10214.842000,-81818.999186,43524.109390
2391.740599,-10510.924376,-70480.785816,-4293.194464
2391.743173,6217.729913,-66497.089226,20133.601622
2391.745748,15396.283594,-70787.224015,1924.535449
2391.748322,-12139.377449,-73238.729609,17024.736666
2391.750897,19245.354492,-77069.207099,14804.118840
2391.753471,-16728.654289,-73085.510509,13323.706956
2391.756045,740.205942,-72319.415011,15396.283594
2391.758620,8142.265362,-72779.072310,6513.812290
2391.761194,-13027.624579,-74617.701505,-7698.141797
2391.763769,10658.965565,-77682.083497,-22502.260637
2391.766343,-5477.523971,-74464.482406,-17912.983796
2391.768917,2516.700203,-72625.853210,-7402.059420
2391.771492,-5181.441594,-71859.757712,3108.864956
2391.774066,-6217.729913,-75537.016103,740.205942
2391.776641,1480.411884,-79520.712692,-2812.782580
2391.779215,-1480.411884,-78448.178995,-5625.565159
2391.781789,-4145.153275,-79520.712692,6217.729913
2391.784364,2220.617826,-74158.044206,-16876.695478
2391.786938,-4145.153275,-70327.566716,3256.906145
2391.789513,-4293.194464,-75077.358804,6957.935855
2391.792087,8290.306550,-77988.521696,1776.494261
2391.794662,592.164754,-81052.903688,-12287.418637
2391.797236,-12879.583391,-72166.195912,-11695.253884
2391.799810,3701.029710,-68182.499322,-18505.148550
2391.802385,-16284.530724,-71246.881314,-3108.864956
2391.804959,3849.070898,-75077.358804,-5329.482782
2391.807534,-7105.977043,-78448.178995,-2812.782580
2391.810108,8882.471304,-78294.959896,-2516.700203
2391.812682,8290.306550,-73085.510509,2960.823768
2391.815257,-14063.912898,-69101.813920,15544.324782
2391.817831,12139.377449,-70787.224015,11399.171507
2391.820406,-0.000000,-74617.701505,19097.313304
2391.822980,5477.523971,-78294.959896,10066.800811
2391.825554,2072.576638,-77069.207099,9622.677246
2391.828129,-5773.606348,-73698.386908,5181.441594
2391.830703,2220.617826,-73391.948708,7105.977043
2391.833278,1480.411884,-75383.797003,15544.324782
2391.835852,-5773.606348,-73238.729609,18505.148550
2391.838426,7402.059420,-77835.302597,-2368.659014
2391.841002,3997.112087,-75230.577904,148.041188
2391.843578,-2220.617826,-77682.083497,2960.823768
2391.846153,10214.842000,-68795.375720,21762.054695
2391.848729,-2812.782580,-69101.813920,25611.125593
2391.851305,-1036.288319,-77069.207099,21021.848753
2391.853880,7846.182985,-77988.521696,18653.189738
2391.856456,-1628.453072,-75843.454302,10807.006753
2391.859032,5477.523971,-71859.757712,6365.771101
2391.861607,-6513.812290,-71859.757712,11103.089130
2391.864183,3404.947333,-72319.415011,-9326.594869
2391.866759,-3701.029710,-75537.016103,-17172.777854
2391.869334,296.082377,-75230.577904,-18061.024985
2391.871910,5625.565159,-73545.167808,-9178.553681
2391.874486,-5625.565159,-72472.634111,4293.194464
2391.877062,-740.205942,-73545.167808,888.247130
2391.879637,3701.029710,-78141.740796,3404.947333
2391.882213,-11547.212695,-79673.931792,-6513.812290
2391.884789,-1036.288319,-78754.617194,-7402.059420
2391.887364,-6957.935855,-71093.662214,888.247130
2391.889940,-740.205942,-70480.785816,11399.171507
2391.892516,-1924.535449,-70021.128517,-24426.796086
2391.895091,-3701.029710,-69867.909418,-17320.819043
2391.897667,5477.523971,-79827.150892,-15988.448347
2391.900243,-10066.800811,-73698.386908,-16432.571912
2391.902818,12731.542202,-70174.347617,-13767.830521
2391.905394,-13027.624579,-68029.280222,-13175.665768
2391.907970,-4885.359217,-71246.881314,-888.247130
2391.910545,7698.141797,-79061.055394,-10955.047942
2391.913121,-148.041188,-76303.111601,-10807.006753
2391.915697,7550.100608,-75383.797003,-2960.823768
2391.918272,-16284.530724,-68948.594820,13915.871710
2391.920848,15248.242405,-70021.128517,17320.819043
2391.923424,-8290.306550,-74464.482406,18801.230927
2391.925999,-296.082377,-76609.549800,12879.583391
2391.928575,6957.935855,-77375.645298,6513.812290
2391.931151,-7402.059420,-73698.386908,1332.370696
2391.933726,10955.047942,-69714.690318,5033.400406
2391.936302,-4441.235652,-67569.622924,4589.276840
2391.938878,6513.812290,-70787.224015,-14063.912898
2391.941453,2664.741391,-74924.139704,3108.864956
2391.943996,-14804.118840,-79214.274493,21465.972318
2391.946538,-5033.400406,-73698.386908,10066.800811
2391.949080,7105.977043,-70940.443115,15100.201217
2391.951622,5477.523971,-69408.252119,25759.166782
2391.954164,3404.947333,-72472.634111,8586.388927
2391.956706,6217.729913,-75996.673402,15100.201217
2391.959249,-1924.535449,-77069.207099,8734.430116
2391.961791,-1628.453072,-73085.510509,11695.253884
2391.964333,5921.647536,-72166.195912,17468.860231
2391.966875,-6217.729913,-73238.729609,-6069.688724
2391.969417,-296.082377,-75077.358804,-18801.230927
2391.971960,1628.453072,-76149.892501,-24722.878463
2391.974502,3404.947333,-73545.167808,-9474.636058
2391.977044,1480.411884,-73698.386908,1332.370696
2391.979586,-7698.141797,-73391.948708,3701.029710
2391.982128,8438.347739,-76609.549800,2960.823768
2391.984671,-4885.359217,-80133.589091,-1036.288319
2391.987213,-1184.329507,-75537.016103,-10807.006753
2391.989755,9178.553681,-73238.729609,23686.590144
2391.992297,-14804.118840,-73698.386908,-13027.624579
2391.994839,12583.501014,-70021.128517,26943.496289
2391.997382,4885.359217,-82278.656485,-9770.718434
2391.999924,-15100.201217,-78907.836294,-9474.636058
2392.002466,20429.683999,-75843.454302,-4293.194464
2392.005008,-5625.565159,-70327.566716,-16580.613101
2392.007550,2516.700203,-68488.937521,8438.347739
2392.010092,7254.018232,-74464.482406,-6069.688724
2392.012635,-10955.047942,-75690.235202,-5329.482782
2392.015177,14211.954086,-79827.150892,-6809.894666
2392.017719,-16284.530724,-73085.510509,-1480.411884
2392.020261,7846.182985,-71859.757712,13027.624579
2392.022803,-592.164754,-69714.690318,18801.230927
2392.025346,3997.112087,-74617.701505,16284.530724
2392.027888,3849.070898,-77528.864398,20133.601622
2392.030430,740.205942,-75383.797003,3997.112087
2392.032972,-2368.659014,-74617.701505,6957.935855
2392.035514,1036.288319,-69714.690318,-2960.823768
2392.038057,-0.000000,-68795.375720,1036.288319
2392.040599,-9622.677246,-71093.662214,-26203.290347
2392.043141,8142.265362,-71859.757712,3997.112087
2392.045691,-1628.453072,-79673.931792,20873.807564
2392.048240,-296.082377,-74924.139704,-8734.430116
2392.050790,3108.864956,-68182.499322,25463.084405
2392.053340,8882.471304,-69561.471218,7254.018232
2392.055889,3552.988522,-73391.948708,28127.825796
2392.058439,8882.471304,-82738.313784,8586.388927
2392.060989,-6661.853478,-74158.044206,7846.182985
2392.063538,2072.576638,-74770.920605,13175.665768
2392.066088,592.164754,-71553.319513,-2664.741391
2392.068638,-5477.523971,-73545.167808,-6661.853478
2392.071187,2516.700203,-75537.016103,-29016.072926
2392.073737,-3849.070898,-75537.016103,-12879.583391
2392.076287,-2072.576638,-74770.920605,-8882.471304
2392.078836,-4145.153275,-72625.853210,2812.782580
2392.081386,740.205942,-75537.016103,3849.070898
2392.083936,-3997.112087,-78754.617194,-2812.782580
2392.086485,444.123565,-77222.426198,-14508.036463
2392.089035,-17912.983796,-74770.920605,-25463.084405
2392.091585,3701.029710,-73238.729609,1628.453072
2392.094134,-4441.235652,-69255.033019,1628.453072
2392.096684,-5773.606348,-77835.302597,7254.018232
2392.099234,7105.977043,-78907.836294,-22798.343014
2392.101783,-18505.148550,-78448.178995,-15840.407159
2392.104333,888.247130,-75996.673402,-14063.912898
2392.106883,-10510.924376,-71093.662214,3108.864956
2392.109432,-3404.947333,-71859.757712,-3552.988522
2392.111982,-888.247130,-76149.892501,-1036.288319
2392.114532,2960.823768,-77835.302597,-10658.965565
2392.117082,1776.494261,-77222.426198,-4885.359217
2392.119631,-8142.265362,-72012.976812,17320.819043
2392.122181,6809.894666,-71246.881314,19393.395680
2392.124731,-1036.288319,-72012.976812,22946.384202
2392.127280,5625.565159,-76915.987999,14211.954086
2392.129830,1480.411884,-77988.521696,12583.501014
2392.132380,-2960.823768,-77222.426198,6069.688724
2392.134929,6809.894666,-74004.825107,7550.100608
2392.137479,592.164754,-68182.499322,5921.647536
2392.140029,1332.370696,-69561.471218,17320.819043
2392.142578,10955.047942,-76762.768900,740.205942
2392.145128,-8142.265362,-79673.931792,11251.130318
2392.147684,7254.018232,-81206.122788,9918.759623
2392.150240,-12435.459826,-71706.538613,17764.942608
2392.152797,4293.194464,-68488.937521,27387.619854
2392.155353,12731.542202,-74158.044206,18505.148550
2392.157909,-7254.018232,-76915.987999,15248.242405
2392.160465,2664.741391,-77375.645298,9770.718434
2392.163022,-4737.318029,-73698.386908,6069.688724
2392.165578,444.123565,-72932.291410,6957.935855
2392.168134,-1776.494261,-73545.167808,-888.247130
2392.170690,296.082377,-74924.139704,-22650.301825
2392.173247,1184.329507,-75077.358804,-17172.777854
2392.175803,-5033.400406,-73085.510509,-13027.624579
2392.178359,-1924.535449,-73238.729609,4441.235652
2392.180915,740.205942,-74158.044206,3256.906145
2392.183472,2960.823768,-73238.729609,592.164754
2392.186028,7550.100608,-76762.768900,-2664.741391
2392.188584,2220.617826,-76456.330700,12435.459826
2392.191140,6809.894666,-73391.948708,-4737.318029
2392.193696,-18505.148550,-72012.976812,-11991.336260
2392.196253,9326.594869,-73851.606007,10214.842000
2392.198809,-888.247130,-81665.780087,-15988.448347
2392.201365,-11695.253884,-80133.589091,-3256.906145
2392.203921,13915.871710,-77375.645298,-15544.324782
2392.206478,-17764.942608,-69867.909418,-3552.988522
2392.209034,3997.112087,-71246.881314,296.082377
2392.211590,1332.370696,-75996.673402,-6661.853478
2392.214146,2220.617826,-77835.302597,-3404.947333
2392.216703,148.041188,-77069.207099,-6957.935855
2392.219259,-12435.459826,-72012.976812,12583.501014
2392.221815,11251.130318,-71553.319513,21021.848753
2392.224371,-5477.523971,-72319.415011,22650.301825
2392.226928,9326.594869,-76149.892501,17172.777854
2392.229484,-740.205942,-78907.836294,10066.800811
2392.232040,-740.205942,-76303.111601,888.247130
2392.234596,888.247130,-75843.454302,14508.036463
2392.237153,-6217.729913,-74924.139704,25463.084405
2392.239709,14063.912898,-72012.976812,17764.942608
2392.242265,-3404.947333,-75843.454302,-6217.729913
2392.244821,-1184.329507,-78754.617194,-7994.224174
2392.247377,5181.441594,-77528.864398,14359.995275
2392.249938,1480.411884,-72166.195912,22354.219448
2392.252499,-4737.318029,-68948.594820,30200.402434
2392.255060,15544.324782,-73698.386908,21465.972318
2392.257621,2072.576638,-76609.549800,7402.059420
2392.260182,2812.782580,-77375.645298,4293.194464
2392.262743,-2812.782580,-74004.825107,3108.864956
2392.265304,1628.453072,-71553.319513,7402.059420
2392.267865,-2072.576638,-73545.167808,-13915.871710
2392.270426,-740.205942,-73851.606007,-16284.530724
2392.272986,1332.370696,-74004.825107,-18801.230927
2392.275547,-7994.224174,-73238.729609,-12583.501014
2392.278108,3108.864956,-74004.825107,-296.082377
2392.280669,-6809.894666,-74924.139704,2960.823768
2392.283230,8142.265362,-72625.853210,-2072.576638
2392.285791,-1332.370696,-76915.987999,4589.276840
2392.288352,-5625.565159,-73391.948708,13323.706956
2392.290913,1924.535449,-72472.634111,-11695.253884
2392.293474,740.205942,-68182.499322,10214.842000
2392.296035,6217.729913,-79214.274493,-11991.336260
2392.298596,-9622.677246,-77988.521696,-12287.418637
2392.301156,2516.700203,-79673.931792,-11103.089130
2392.303717,-13619.789333,-75537.016103,-1184.329507
2392.306278,-888.247130,-70480.785816,3108.864956
2392.308839,2072.576638,-73851.606007,-1776.494261
2392.311400,-592.164754,-75537.016103,-4589.276840
2392.313961,-5033.400406,-77835.302597,-13471.748144
2392.316522,2220.617826,-72166.195912,2812.782580
2392.319083,296.082377,-73545.167808,15396.283594
2392.321644,-4441.235652,-70787.224015,21169.889941
2392.324205,11251.130318,-74004.825107,17468.860231
2392.326765,-296.082377,-76915.987999,19837.519246
2392.329326,-592.164754,-78754.617194,8142.265362
2392.331887,-8734.430116,-76762.768900,9326.594869
2392.334448,-4589.276840,-72319.415011,-2072.576638
2392.337009,-3997.112087,-71093.662214,22502.260637
2392.339570,12287.418637,-75690.235202,18949.272115
2392.342131,-11251.130318,-72472.634111,-27239.578666
2392.344692,-15248.242405,-73545.167808,6069.688724
2392.347253,21317.931130,-76456.330700,16580.613101
2392.349814,-16728.654289,-65424.555529,18061.024985
2392.352379,21317.931130,-71400.100414,32717.102636
2392.354944,-5477.523971,-71706.538613,3701.029710
2392.357509,1184.329507,-78907.836294,23390.507767
2392.360074,-1628.453072,-77375.645298,-6365.771101
2392.362639,-8290.306550,-71553.319513,5033.400406
2392.365204,11399.171507,-74004.825107,-2072.576638
2392.367769,-5329.482782,-70634.004916,-17172.777854
2392.370334,4441.235652,-74004.825107,-13027.624579
2392.372899,-3701.029710,-74158.044206,-14359.995275
2392.375463,-2516.700203,-75230.577904,-2516.700203
2392.378028,-6957.935855,-77069.207099,5033.400406
2392.380593,6217.729913,-75843.454302,-1332.370696
2392.383158,4293.194464,-71400.100414,-9178.553681
2392.385723,-2516.700203,-75843.454302,-29904.320057
2392.388288,2664.741391,-71246.881314,-6069.688724
2392.390853,-5181.441594,-69255.033019,6957.935855
2392.393418,3256.906145,-76303.111601,-5181.441594
2392.395983,2368.659014,-76762.768900,-19541.436869
2392.398548,-4737.318029,-75843.454302,-22798.343014
2392.401113,-592.164754,-72012.976812,-17764.942608
2392.403678,5033.400406,-70174.347617,-1776.494261
2392.406243,-592.164754,-73085.510509,-148.041188
2392.408808,-2220.617826,-75996.673402,-2664.741391
2392.411373,-888.247130,-77682.083497,-10807.006753
2392.413938,1924.535449,-74004.825107,1924.535449
2392.416503,-6661.853478,-72166.195912,10955.047942
2392.419068,-1184.329507,-71553.319513,21021.848753
2392.421633,9770.718434,-73391.948708,17912.983796
2392.424198,-296.082377,-77069.207099,19245.354492
2392.426763,4589.276840,-77069.207099,4737.318029
2392.429328,-5921.647536,-73238.729609,3552.988522
2392.431893,11103.089130,-71246.881314,9474.636058
2392.434458,4737.318029,-69867.909418,23094.425390
2392.437023,2220.617826,-74617.701505,-6957.935855
2392.439588,6069.688724,-75537.016103,-4293.194464
2392.442153,-296.082377,-77988.521696,-6217.729913
2392.444718,592.164754,-73085.510509,23094.425390
2392.447283,6957.935855,-68335.718422,21762.054695
2392.449848,3997.112087,-68948.594820,24130.713709
2392.452413,2368.659014,-76456.330700,14656.077652
2392.454981,1776.494261,-76915.987999,10214.842000
2392.457548,-148.041188,-75996.673402,4589.276840
2392.460116,1480.411884,-72932.291410,3256.906145
2392.462684,-740.205942,-73085.510509,-5477.523971
2392.465251,3552.988522,-72319.415011,-16580.613101
2392.467819,1776.494261,-74004.825107,-17320.819043
2392.470386,-6069.688724,-75230.577904,-6069.688724
2392.472954,-2072.576638,-75077.358804,-5033.400406
2392.475522,-4885.359217,-77222.426198,3997.112087
2392.478089,2664.741391,-78601.398095,6809.894666
2392.480657,-3552.988522,-74311.263306,-16728.654289
2392.483224,-4589.276840,-74464.482406,-25611.125593
2392.485792,5329.482782,-74311.263306,740.205942
2392.488359,-8290.306550,-71706.538613,-8438.347739
2392.490927,7698.141797,-71246.881314,1924.535449
2392.493495,-2664.741391,-79214.274493,-21169.889941
2392.496062,-14211.954086,-75230.577904,-25167.002028
2392.498630,2072.576638,-72319.415011,-10658.965565
2392.501197,-12583.501014,-70480.785816,-13175.665768
2392.503765,2960.823768,-70634.004916,2516.700203
2392.506332,3997.112087,-77069.207099,-7846.182985
2392.508900,-8734.430116,-76609.549800,-6365.771101
2392.511468,13767.830521,-74158.044206,-3849.070898
2392.514035,-14211.954086,-71706.538613,13323.706956
2392.516603,3701.029710,-71093.662214,21910.095883
2392.519170,9918.759623,-73698.386908,17320.819043
2392.521738,2516.700203,-76303.111601,17024.736666
2392.524305,2664.741391,-77528.864398,4737.318029
2392.526873,-5773.606348,-71093.662214,-740.205942
2392.529441,11843.295072,-70327.566716,9178.553681
2392.532008,-148.041188,-70327.566716,10955.047942
2392.534576,-0.000000,-73545.167808,-5477.523971
2392.537143,3108.864956,-76915.987999,10510.924376
2392.539711,-1480.411884,-79061.055394,10510.924376
2392.542278,6957.935855,-71553.319513,10807.006753
2392.544846,1628.453072,-70021.128517,33753.390955
2392.547414,5625.565159,-68642.156621,13175.665768
2392.549981,6069.688724,-75996.673402,28275.866984
2392.552549,2368.659014,-77375.645298,2960.823768
2392.555116,-11843.295072,-74617.701505,888.247130
2392.557685,8438.347739,-73238.729609,-5921.647536
2392.560255,-5921.647536,-71706.538613,-14063.912898
2392.562825,3701.029710,-71246.881314,-20577.725188
2392.565394,2072.576638,-72166.195912,-16432.571912
2392.567964,-11399.171507,-74158.044206,-14952.160028
2392.570534,2960.823768,-75996.673402,-148.041188
2392.573104,3256.906145,-75843.454302,-888.247130
2392.575674,-148.041188,-70940.443115,-3256.906145
2392.578244,6513.812290,-69867.909418,-25315.043216
2392.580814,-14804.118840,-71553.319513,-26943.496289
2392.583384,5625.565159,-71859.757712,2516.700203
2392.585954,-6217.729913,-71706.538613,11399.171507
2392.588524,1036.288319,-72932.291410,-22650.301825
2392.591093,5033.400406,-79980.369991,-10066.800811
2392.593663,-11843.295072,-78448.178995,-15692.365970
2392.596233,-2072.576638,-73545.167808,-7105.977043
2392.598803,-888.247130,-73085.510509,4589.276840
2392.601373,-1628.453072,-74924.139704,-1480.411884
2392.603943,6809.894666,-77375.645298,592.164754
2392.606513,-4145.153275,-76915.987999,-13915.871710
2392.609083,-8586.388927,-69408.252119,15396.283594
2392.611653,7105.977043,-73391.948708,15840.407159
2392.614222,1480.411884,-72472.634111,24574.837274
2392.616792,7698.141797,-75077.358804,19541.436869
2392.619362,2516.700203,-75690.235202,11991.336260
2392.621932,1332.370696,-73698.386908,3849.070898
2392.624502,-4293.194464,-75537.016103,6069.688724
2392.627072,1332.370696,-72012.976812,14359.995275
2392.629642,11843.295072,-70480.785816,30052.361245
2392.632212,-5181.441594,-74617.701505,13767.830521
2392.634782,5329.482782,-78601.398095,11547.212695
2392.637352,296.082377,-78601.398095,-740.205942
2392.639923,-9770.718434,-73085.510509,27239.578666
2392.642494,16432.571912,-72472.634111,29312.155303
2392.645065,296.082377,-72319.415011,27387.619854
2392.647636,-4885.359217,-76149.892501,16580.613101
2392.650208,3404.947333,-77375.645298,1628.453072
2392.652779,-10362.883188,-74617.701505,-1776.494261
2392.655350,444.123565,-73085.510509,-10066.800811
2392.657921,1924.535449,-71859.757712,-14952.160028
2392.660492,1332.370696,-72625.853210,-16432.571912
2392.663064,-592.164754,-73545.167808,-6957.935855
2392.665635,-8290.306550,-75690.235202,-2516.700203
2392.668206,-3997.112087,-78907.836294,3552.988522
2392.670777,2516.700203,-77835.302597,4737.318029
2392.673349,-6809.894666,-76762.768900,4293.194464
2392.675920,7994.224174,-74004.825107,21762.054695
2392.678491,-14804.118840,-78294.959896,-41303.491564
2392.681062,-1628.453072,-70327.566716,29460.196492
2392.683633,11843.295072,-81206.122788,-5329.482782
2392.686205,-25611.125593,-75230.577904,-29164.114115
2392.688776,9918.759623,-77069.207099,2220.617826
2392.691347,-17172.777854,-71859.757712,-26795.455100
2392.693918,-8290.306550,-73085.510509,6957.935855
2392.696489,10658.965565,-75077.358804,-5773.606348
2392.699061,-17764.942608,-77222.426198,1332.370696
2392.701632,19245.354492,-78601.398095,-7402.059420
2392.704203,-13767.830521,-71246.881314,5033.400406
2392.706774,1036.288319,-73238.729609,24574.837274
2392.709346,5033.400406,-73238.729609,22946.384202
2392.711917,1036.288319,-75230.577904,21465.972318
2392.714488,9326.594869,-78754.617194,13767.830521
2392.717059,-6661.853478,-77988.521696,5033.400406
2392.719630,-5625.565159,-74924.139704,7105.977043
2392.722202,2960.823768,-72625.853210,16876.695478
2392.724773,11991.336260,-70787.224015,2516.700203
2392.727344,-12583.501014,-75383.797003,-5921.647536
2392.729915,5181.441594,-76609.549800,4145.153275
2392.732486,-740.205942,-77222.426198,12287.418637
2392.735058,-8142.265362,-73238.729609,25759.166782
2392.737629,15544.324782,-70634.004916,27535.661042
2392.740200,3108.864956,-73851.606007,19541.436869
2392.742772,2220.617826,-75230.577904,22502.260637
2392.745345,-1036.288319,-78294.959896,-296.082377
2392.747917,-10362.883188,-73391.948708,2812.782580
2392.750490,7402.059420,-73698.386908,-16432.571912
2392.753062,-6217.729913,-71093.662214,-18357.107362
2392.755634,4589.276840,-72779.072310,-16580.613101
2392.758207,-2072.576638,-73545.167808,-5921.647536
2392.760779,-6513.812290,-75690.235202,-1480.411884
2392.763351,-3552.988522,-79827.150892,2516.700203
2392.765924,-0.000000,-77375.645298,3552.988522
2392.768496,-2220.617826,-79520.712692,11251.130318
2392.771068,3108.864956,-74158.044206,-17320.819043
2392.773641,-5033.400406,-69714.690318,-11251.130318
2392.776213,-0.000000,-71246.881314,-8438.347739
2392.778785,-592.164754,-74158.044206,-9918.759623
2392.781358,3849.070898,-79061.055394,-10658.965565
2392.783930,4737.318029,-74617.701505,-16432.571912
2392.786502,1184.329507,-69867.909418,-8734.430116
2392.789075,-2516.700203,-70480.785816,-6661.853478
2392.791647,3108.864956,-74004.825107,148.041188
2392.794219,148.041188,-78141.740796,-5625.565159
2392.796792,3849.070898,-76456.330700,-6365.771101
2392.799364,-6957.935855,-74004.825107,10066.800811
2392.801937,740.205942,-71706.538613,28423.908173
2392.804509,7846.182985,-71859.757712,24426.796086
2392.807081,2516.700203,-74311.263306,21762.054695
2392.809654,5625.565159,-76149.892501,5181.441594
2392.812226,-1332.370696,-75230.577904,148.041188
2392.814798,-1184.329507,-74770.920605,8882.471304
2392.817371,6217.729913,-68795.375720,16728.654289
2392.819943,13323.706956,-71859.757712,5477.523971
2392.822515,-5181.441594,-75077.358804,8586.388927
2392.825088,10658.965565,-81972.218286,5477.523971
2392.827660,-13767.830521,-77222.426198,14804.118840
2392.830232,7846.182985,-73391.948708,26203.290347
2392.832805,5477.523971,-71553.319513,28275.866984
2392.835377,12583.501014,-74617.701505,25907.207970
2392.837949,-0.000000,-76915.987999,13767.830521
2392.840522,-9918.759623,-75843.454302,1184.329507
2392.843094,1036.288319,-74770.920605,-18209.066173
2392.845668,-4589.276840,-72012.976812,-13767.830521
2392.848241,4885.359217,-70480.785816,-23538.548956
2392.850815,-4737.318029,-70021.128517,-12879.583391
2392.853388,-1184.329507,-73545.167808,-10658.965565
2392.855962,-6069.688724,-77222.426198,-2368.659014
2392.858536,3108.864956,-76456.330700,148.041188
2392.861109,1776.494261,-77528.864398,1332.370696
2392.863683,2368.659014,-71706.538613,1628.453072
2392.866256,-740.205942,-71553.319513,-8734.430116
2392.868830,-13323.706956,-74158.044206,-11695.253884
2392.871403,3701.029710,-74770.920605,18061.024985
2392.873977,-10955.047942,-78907.836294,-21317.931130
2392.876551,-3404.947333,-74924.139704,-15248.242405
2392.879124,3552.988522,-73085.510509,-11695.253884
2392.881698,-10362.883188,-70480.785816,-9918.759623
2392.884271,4145.153275,-70940.443115,4589.276840
2392.886845,-4885.359217,-76149.892501,-10214.842000
2392.889418,-1332.370696,-76456.330700,-8734.430116
2392.891992,148.041188,-75843.454302,2664.741391
2392.894566,-2812.782580,-72012.976812,17468.860231
2392.897139,6069.688724,-71553.319513,24722.878463
2392.899713,1776.494261,-72932.291410,25611.125593
2392.902286,8290.306550,-76149.892501,16432.571912
2392.904860,-1628.453072,-75230.577904,3701.029710
2392.907433,888.247130,-75230.577904,-2516.700203
2392.910007,-2812.782580,-69101.813920,296.082377
2392.912580,-3108.864956,-67722.842023,19689.478057
2392.915154,22206.178260,-72319.415011,19837.519246
2392.917728,-5329.482782,-78294.959896,-8290.306550
2392.920301,-3552.988522,-74924.139704,5921.647536
2392.922875,10658.965565,-73238.729609,16432.571912
2392.925448,-13175.665768,-71706.538613,31680.814318
2392.928022,16580.613101,-73698.386908,24870.919651
2392.930595,-8586.388927,-76456.330700,28423.908173
2392.933169,4293.194464,-77069.207099,2072.576638
2392.935743,3701.029710,-76149.892501,-11103.089130
2392.938316,-9770.718434,-74770.920605,-15544.324782
2392.940890,7254.018232,-70174.347617,-18505.148550
2392.943463,-5773.606348,-71093.662214,-13915.871710
2392.946037,4441.235652,-72472.634111,-5477.523971
2392.948610,-8882.471304,-76303.111601,-3552.988522
2392.951184,-2812.782580,-77528.864398,-296.082377
2392.953758,3552.988522,-76456.330700,-2072.576638
2392.956331,-592.164754,-74617.701505,-7994.224174
2392.958905,-3849.070898,-72472.634111,-26203.290347
2392.961478,-3997.112087,-72472.634111,-12731.542202
2392.964052,-7698.141797,-72779.072310,10658.965565
2392.966625,-592.164754,-76609.549800,-14063.912898
2392.969199,-4145.153275,-78907.836294,-20429.683999
2392.971773,-1480.411884,-73545.167808,-18505.148550
2392.974346,1036.288319,-70021.128517,-18949.272115
2392.976920,148.041188,-70021.128517,148.041188
2392.979493,1628.453072,-75230.577904,-1332.370696
2392.982067,-6957.935855,-76762.768900,-4885.359217
2392.984640,3701.029710,-75383.797003,-1628.453072
2392.987214,-1776.494261,-72012.976812,7698.141797
2392.989787,2220.617826,-71553.319513,20577.725188
2392.992361,7402.059420,-73698.386908,21614.013506
2392.994935,2368.659014,-75690.235202,22354.219448
2392.997508,1776.494261,-79673.931792,3997.112087
2393.000082,-5477.523971,-78294.959896,-1036.288319
2393.002655,-2516.700203,-74158.044206,19393.395680
2393.005229,8586.388927,-71553.319513,10066.800811
2393.007802,1776.494261,-70021.128517,17616.901420
2393.010376,4885.359217,-79827.150892,22058.137072
2393.012950,-444.123565,-78141.740796,-3256.906145
2393.015523,-6661.853478,-74770.920605,29312.155303
2393.018097,7550.100608,-74924.139704,31088.649564
2393.020670,4737.318029,-71553.319513,31828.855506
2393.023244,1036.288319,-77988.521696,26203.290347
2393.025817,2368.659014,-77222.426198,5329.482782
2393.028391,740.205942,-77222.426198,-7105.977043
2393.030965,-7698.141797,-74770.920605,-20873.807564
2393.033538,6957.935855,-70480.785816,-17912.983796
2393.036112,-3701.029710,-70634.004916,-16728.654289
2393.038685,-592.164754,-70940.443115,-6069.688724
2393.041259,-1036.288319,-76456.330700,-2220.617826
2393.043832,-9178.553681,-77528.864398,-296.082377
2393.046406,14211.954086,-79673.931792,-5033.400406
2393.048979,-1628.453072,-75843.454302,-17616.901420
2393.051553,-8586.388927,-68642.156621,-2812.782580
2393.054127,10362.883188,-73851.606007,3256.906145
2393.056700,-19689.478057,-68182.499322,-47521.221476
2393.059274,15692.365970,-74004.825107,444.123565
2393.061848,-5625.565159,-75996.673402,-36270.091158
2393.064421,740.205942,-72779.072310,-2072.576638
2393.066995,8882.471304,-73851.606007,-16728.654289
2393.069569,-19541.436869,-70327.566716,-7550.100608
