#time,accel_x,accel_y,accel_z
3737.940309,-1627.119368,-114.855485,-9207.581365
3737.942868,-2794.816797,937.986459,-9016.155557
3737.945426,-3292.523898,-765.703232,-8977.870395
3737.947985,-4134.797453,784.845813,-8843.872330
3737.950543,248.853550,172.283227,-9647.860723
3737.953102,57.427742,899.701298,-9207.581365
3737.955547,937.986459,-1780.260014,-9092.725880
3737.957996,689.132909,1684.547110,-8997.012976
3737.960445,-287.138712,-133.998066,-9418.149754
3737.962894,-2086.541307,555.134843,-9226.723946
3737.965343,-2277.967115,823.130974,-9437.292334
3737.967792,-38.285162,-1588.834206,-9054.440718
3737.970241,-1014.556782,19.142581,-9111.868461
3737.972690,1818.545176,229.710970,-8882.157491
3737.975140,1416.550979,1205.982590,-9111.868461
3737.977589,593.420005,-1339.980656,-9092.725880
3737.980038,1129.412267,1761.117434,-8843.872330
3737.982487,-1148.554848,-1473.978722,-9169.296203
3737.984936,-1320.838075,937.986459,-9169.296203
3737.987385,-1148.554848,1588.834206,-8805.587168
3737.989834,-3483.949706,344.566454,-9341.579430
3737.992283,1339.980656,-784.845813,-9265.009107
3737.994733,3292.523898,555.134843,-8499.305875
3737.997182,-3445.664544,459.421939,-8824.729749
3737.999631,-57.427742,-325.423874,-8920.442653
3738.002080,1512.263883,784.845813,-9150.153622
3738.004529,2450.250342,191.425808,-9303.294269
3738.006978,-497.707101,-2431.107762,-8595.018779
3738.009427,1933.400661,1416.550979,-8977.870395
3738.011876,-57.427742,287.138712,-9571.290400
3738.014325,2813.959378,-1225.125171,-9016.155557
3738.016775,1091.127106,765.703232,-8384.450390
3738.019224,-1225.125171,-267.996131,-9073.583299
3738.021673,-76.570323,-95.712904,-8863.014910
3738.024122,-1799.402595,440.279358,-8824.729749
3738.026571,-287.138712,76.570323,-9284.151688
3738.029020,-803.988394,-842.273555,-9437.292334
3738.031469,727.418070,1301.695494,-8939.585234
3738.033918,784.845813,689.132909,-9226.723946
3738.036367,1607.976787,-2947.957443,-9245.866526
3738.038817,1282.552914,1186.840010,-8614.161360
3738.041266,-612.562586,267.996131,-9207.581365
3738.043715,-3445.664544,784.845813,-9379.864592
3738.046164,-4728.217458,1531.406464,-9188.438784
3738.048613,-1167.697429,363.709035,-9667.003304
3738.051062,-114.855485,-3215.953574,-9284.151688
3738.053563,-899.701298,133.998066,-8518.448456
3738.056064,-1646.261949,516.849682,-9054.440718
3738.058564,-1205.982590,-210.568389,-9150.153622
3738.061065,-1569.691626,574.277424,-9322.436850
3738.063566,-1818.545176,363.709035,-9188.438784
3738.066066,-1761.117434,-1952.543242,-9437.292334
3738.068567,-2239.681954,708.275490,-9016.155557
3738.071068,-899.701298,995.414202,-9533.005238
3738.073568,-1512.263883,-1914.258080,-9245.866526
3738.076069,-114.855485,803.988394,-8633.303941
3738.078570,-1493.121302,803.988394,-9418.149754
3738.081070,-976.271621,-19.142581,-9322.436850
3738.083571,-1014.556782,-38.285162,-9092.725880
3738.086072,2526.820666,555.134843,-8863.014910
3738.088572,-4039.084549,-823.130974,-9284.151688
3738.091073,-2756.531635,-95.712904,-9686.145885
3738.093574,2239.681954,-421.136778,-9686.145885
3738.096074,-3388.236802,172.283227,-9150.153622
3738.098575,-1339.980656,-287.138712,-9035.298138
3738.101076,440.279358,1014.556782,-9131.011042
3738.103576,-2833.101958,382.851616,-8958.727814
3738.106077,-2258.824534,-497.707101,-8958.727814
3738.108578,-3235.096155,1244.267752,-9111.868461
3738.111078,593.420005,-689.132909,-9475.577496
3738.113579,-1588.834206,803.988394,-8939.585234
3738.116080,-191.425808,-344.566454,-9647.860723
3738.118581,-689.132909,248.853550,-9016.155557
3738.121081,-1110.269686,-593.420005,-8920.442653
3738.123582,-765.703232,1895.115499,-8767.302006
3738.126083,-2622.533570,535.992262,-9188.438784
3738.128583,-2794.816797,-1339.980656,-9111.868461
3738.131084,-2239.681954,1531.406464,-9016.155557
3738.133585,-1665.404530,-2201.396792,-9686.145885
3738.136085,-708.275490,1091.127106,-9379.864592
3738.138586,3675.375514,2469.392923,-8231.309744
3738.141087,2048.256146,-612.562586,-8977.870395
3738.143587,-2431.107762,-1856.830338,-8863.014910
3738.146088,363.709035,287.138712,-9016.155557
3738.148589,-880.558717,19.142581,-9552.147819
3738.151089,1129.412267,267.996131,-9265.009107
3738.153625,-631.705166,1895.115499,-9092.725880
3738.156161,-229.710970,114.855485,-9035.298138
3738.158696,478.564520,-2986.242605,-9092.725880
3738.161232,38.285162,1091.127106,-8652.446522
3738.163768,746.560651,-325.423874,-9035.298138
3738.166303,-1052.841944,746.560651,-8843.872330
3738.168839,708.275490,1186.840010,-8824.729749
3738.171375,76.570323,-401.994197,-9016.155557
3738.173910,708.275490,-1359.123237,-9054.440718
3738.176446,-1205.982590,784.845813,-9284.151688
3738.178982,-861.416136,765.703232,-9169.296203
3738.181517,-1684.547110,-210.568389,-9073.583299
3738.184053,4536.791650,516.849682,-8518.448456
3738.186588,76.570323,-133.998066,-8575.876198
3738.189124,-2373.680019,-746.560651,-8997.012976
3738.191660,2660.818731,995.414202,-8786.444587
3738.194195,-1684.547110,-918.843878,-9054.440718
3738.196731,-1435.693560,-1167.697429,-9552.147819
3738.199267,650.847747,842.273555,-8843.872330
3738.201802,574.277424,-1167.697429,-9322.436850
3738.204338,2756.531635,-133.998066,-9418.149754
3738.206874,210.568389,-114.855485,-8365.307810
3738.209409,-114.855485,497.707101,-8786.444587
3738.211945,-1473.978722,-1512.263883,-8863.014910
3738.214481,-1167.697429,440.279358,-9207.581365
3738.217016,-210.568389,57.427742,-9571.290400
3738.219552,-1473.978722,-957.129040,-9494.720077
3738.222088,382.851616,631.705166,-9054.440718
3738.224623,765.703232,823.130974,-9245.866526
3738.227159,1895.115499,-3139.383251,-9475.577496
3738.229695,1071.984525,497.707101,-8882.157491
3738.232230,-57.427742,-1071.984525,-9054.440718
3738.234766,-3713.660675,1033.699363,-9265.009107
3738.237302,-4019.941968,1454.836141,-9207.581365
3738.239837,-2660.818731,-38.285162,-9915.856854
3738.242373,-267.996131,-2450.250342,-9571.290400
3738.244908,-1263.410333,-440.279358,-8805.587168
3738.247444,-1493.121302,1033.699363,-9150.153622
3738.249980,-861.416136,-823.130974,-9265.009107
3738.252515,-287.138712,1971.685822,-8748.159426
3738.254990,-1339.980656,708.275490,-9131.011042
3738.257464,-1799.402595,-1378.265818,-9379.864592
3738.259939,-2507.678085,267.996131,-9169.296203
3738.262414,-1703.689691,1320.838075,-9437.292334
3738.264888,-1607.976787,-1244.267752,-9245.866526
3738.267363,-1263.410333,153.140646,-9188.438784
3738.269837,-555.134843,1225.125171,-9111.868461
3738.272312,-1588.834206,-1148.554848,-9207.581365
3738.274786,-5436.492947,995.414202,-9437.292334
3738.277261,-1607.976787,1703.689691,-9188.438784
3738.279735,2622.533570,-1320.838075,-8939.585234
3738.282210,-3081.955509,95.712904,-9533.005238
3738.284684,-2584.248408,2086.541307,-9743.573627
3738.287159,1914.258080,-1033.699363,-8920.442653
3738.289633,937.986459,-306.281293,-8786.444587
3738.292108,-976.271621,1856.830338,-8135.596840
3738.294582,-3005.385186,-1225.125171,-9226.723946
3738.297057,-3522.234867,555.134843,-8939.585234
3738.299531,248.853550,918.843878,-8843.872330
3738.302006,-746.560651,191.425808,-9284.151688
3738.304480,-1588.834206,-574.277424,-9341.579430
3738.306955,-76.570323,1684.547110,-9399.007173
3738.309429,-1454.836141,-1244.267752,-9628.718142
3738.311904,-1799.402595,-1531.406464,-8786.444587
3738.314378,-1914.258080,2584.248408,-8441.878133
3738.316853,-2201.396792,-2048.256146,-8977.870395
3738.319327,-2967.100024,574.277424,-8920.442653
3738.321802,-1167.697429,-325.423874,-9111.868461
3738.324277,650.847747,1550.549045,-9437.292334
3738.326751,555.134843,363.709035,-9456.434915
3738.329226,516.849682,-478.564520,-8518.448456
3738.331700,612.562586,401.994197,-9035.298138
3738.334175,-612.562586,-2411.965181,-9131.011042
3738.336649,-555.134843,2354.537438,-8748.159426
3738.339124,229.710970,1607.976787,-9150.153622
3738.341598,-344.566454,-516.849682,-8863.014910
3738.344073,1014.556782,918.843878,-8824.729749
3738.346547,382.851616,-2239.681954,-9322.436850
3738.349022,-401.994197,401.994197,-9092.725880
3738.351496,-497.707101,-440.279358,-8901.300072
3738.354010,344.566454,1129.412267,-8786.444587
3738.356523,344.566454,-1837.687757,-9016.155557
3738.359037,-95.712904,689.132909,-8518.448456
3738.361550,1454.836141,689.132909,-8824.729749
3738.364063,-1052.841944,-57.427742,-9188.438784
3738.366577,3675.375514,1129.412267,-8958.727814
3738.369090,5934.200048,191.425808,-9265.009107
3738.371604,-2297.109696,-2048.256146,-9035.298138
3738.374117,-2220.539373,2105.683888,-9035.298138
3738.376631,-1014.556782,-344.566454,-9111.868461
3738.379144,4900.500685,-1014.556782,-8863.014910
3738.381657,-1167.697429,248.853550,-8920.442653
3738.384171,1416.550979,803.988394,-8824.729749
3738.386684,1378.265818,-38.285162,-9954.142016
3738.389198,-325.423874,153.140646,-9016.155557
3738.391711,2067.398726,-172.283227,-9571.290400
3738.394225,-2584.248408,-1684.547110,-9226.723946
3738.396738,-38.285162,1110.269686,-8729.016845
3738.399251,-2067.398726,-210.568389,-9169.296203
3738.401765,-497.707101,-1071.984525,-9284.151688
3738.404278,784.845813,1205.982590,-8748.159426
3738.406792,421.136778,2239.681954,-9379.864592
3738.409305,1646.261949,-2890.529701,-9667.003304
3738.411819,306.281293,-153.140646,-9418.149754
3738.414332,-478.564520,-1282.552914,-9609.575562
3738.416845,-3158.525832,459.421939,-9131.011042
3738.419359,-1244.267752,2163.111630,-8843.872330
3738.421872,-2182.254211,689.132909,-9207.581365
3738.424386,-650.847747,-1952.543242,-9303.294269
3738.426899,-1665.404530,-1397.408398,-8939.585234
3738.429412,-1588.834206,2143.969050,-9226.723946
3738.431926,-382.851616,-669.990328,-9533.005238
3738.434439,-937.986459,823.130974,-9284.151688
3738.436953,-1282.552914,57.427742,-9360.722011
3738.439466,-2469.392923,-1129.412267,-9284.151688
3738.441980,-2392.822600,-114.855485,-9016.155557
3738.444493,-1837.687757,1588.834206,-8977.870395
3738.447006,-516.849682,344.566454,-9073.583299
3738.449520,-1895.115499,-248.853550,-9341.579430
3738.452033,-19.142581,1033.699363,-9265.009107
3738.454575,-306.281293,-2009.970984,-9360.722011
3738.457117,-3962.514226,-421.136778,-9954.142016
3738.459659,-5283.352301,2603.390989,-9035.298138
3738.462201,1646.261949,-1301.695494,-9360.722011
3738.464743,1378.265818,-1588.834206,-8920.442653
3738.467285,1627.119368,555.134843,-9226.723946
3738.469828,-4843.072942,-19.142581,-9111.868461
3738.472370,-2928.814862,459.421939,-8690.731683
3738.474912,-2258.824534,-210.568389,-9092.725880
3738.477454,-1148.554848,421.136778,-9073.583299
3738.479996,-2450.250342,-325.423874,-9303.294269
3738.482538,-1780.260014,2105.683888,-8403.592971
3738.485080,-57.427742,-76.570323,-9035.298138
3738.487622,-497.707101,-1014.556782,-8958.727814
3738.490164,133.998066,1397.408398,-8633.303941
3738.492706,-1473.978722,0.000000,-9073.583299
3738.495248,-1607.976787,229.710970,-8977.870395
3738.497790,-2852.244539,95.712904,-8824.729749
3738.500332,-2641.676150,-19.142581,-9265.009107
3738.502874,-1033.699363,-842.273555,-9226.723946
3738.505416,76.570323,2450.250342,-9111.868461
3738.507958,-114.855485,976.271621,-9226.723946
3738.510500,1416.550979,-1914.258080,-8709.874264
3738.513042,861.416136,363.709035,-8556.733618
3738.515584,-440.279358,-1033.699363,-9207.581365
3738.518126,-95.712904,382.851616,-9092.725880
3738.520668,-803.988394,1971.685822,-8958.727814
3738.523210,0.000000,-191.425808,-9169.296203
3738.525752,497.707101,-1339.980656,-9265.009107
3738.528294,-497.707101,19.142581,-8958.727814
3738.530836,38.285162,325.423874,-9226.723946
3738.533378,689.132909,-784.845813,-8977.870395
3738.535920,-248.853550,1416.550979,-8307.880067
3738.538462,746.560651,210.568389,-8748.159426
3738.541004,287.138712,-2545.963246,-9437.292334
3738.543546,535.992262,459.421939,-9131.011042
3738.546088,3005.385186,-631.705166,-9265.009107
3738.548630,-19.142581,-1780.260014,-9016.155557
3738.551172,-3885.943902,516.849682,-8977.870395
3738.553714,995.414202,918.843878,-9188.438784
3738.556276,1052.841944,-3330.809059,-9207.581365
3738.558837,-3483.949706,-1493.121302,-9092.725880
3738.561398,-2048.256146,1033.699363,-9360.722011
3738.563959,459.421939,-1569.691626,-9915.856854
3738.566521,1588.834206,-382.851616,-9035.298138
3738.569082,2756.531635,210.568389,-9475.577496
3738.571643,-995.414202,-1627.119368,-9379.864592
3738.574205,-459.421939,516.849682,-8556.733618
3738.576766,-1129.412267,172.283227,-9035.298138
3738.579327,-555.134843,-880.558717,-9475.577496
3738.581888,-1129.412267,478.564520,-9475.577496
3738.584450,-401.994197,1301.695494,-9609.575562
3738.587011,1588.834206,-497.707101,-9628.718142
3738.589572,1646.261949,-1703.689691,-9341.579430
3738.592133,1397.408398,-267.996131,-9571.290400
3738.594695,-1416.550979,-1952.543242,-9456.434915
3738.597256,-4268.795518,2947.957443,-9016.155557
3738.599817,-4709.074877,2641.676150,-9169.296203
3738.602378,-2182.254211,-669.990328,-9724.431046
3738.604940,-440.279358,-1378.265818,-9131.011042
3738.607501,-1627.119368,114.855485,-9073.583299
3738.610062,-1205.982590,-363.709035,-9245.866526
3738.612624,-1263.410333,842.273555,-9207.581365
3738.615185,248.853550,2105.683888,-9494.720077
3738.617746,-1493.121302,-727.418070,-8920.442653
3738.620307,-2431.107762,-1454.836141,-8939.585234
3738.622869,-1761.117434,2105.683888,-8748.159426
3738.625430,-1952.543242,57.427742,-9245.866526
3738.627991,-401.994197,-306.281293,-8805.587168
3738.630552,-1665.404530,1052.841944,-9437.292334
3738.633114,-1282.552914,-784.845813,-9360.722011
3738.635675,-2469.392923,-248.853550,-9724.431046
3738.638236,-5474.778109,1837.687757,-8461.020714
3738.640797,-976.271621,440.279358,-9111.868461
3738.643359,957.129040,-1320.838075,-9035.298138
3738.645920,-4268.795518,2163.111630,-9188.438784
3738.648481,-267.996131,918.843878,-9303.294269
3738.651043,-440.279358,-650.847747,-8824.729749
3738.653604,-2565.105827,1244.267752,-8958.727814
3738.656165,-2852.244539,-574.277424,-9743.573627
3738.658741,-4555.934230,-708.275490,-8920.442653
3738.661316,-612.562586,1627.119368,-8824.729749
3738.663892,191.425808,-401.994197,-8748.159426
3738.666468,-248.853550,-1473.978722,-9092.725880
3738.669043,-650.847747,2335.394858,-8690.731683
3738.671619,-1722.832272,57.427742,-9016.155557
3738.674195,-1493.121302,-555.134843,-8863.014910
3738.676770,-2622.533570,1244.267752,-8767.302006
3738.679346,-2048.256146,-1186.840010,-9245.866526
3738.681922,-1033.699363,287.138712,-9226.723946
3738.684497,995.414202,1627.119368,-8958.727814
3738.687073,19.142581,535.992262,-9092.725880
3738.689649,-1378.265818,-3235.096155,-9150.153622
3738.692224,2335.394858,880.558717,-8748.159426
3738.694800,-95.712904,-574.277424,-9131.011042
3738.697376,631.705166,-574.277424,-9360.722011
3738.699951,-1397.408398,1339.980656,-8824.729749
3738.702527,-1071.984525,-650.847747,-9379.864592
3738.705103,803.988394,-1052.841944,-9169.296203
3738.707678,19.142581,76.570323,-8843.872330
3738.710254,229.710970,823.130974,-9169.296203
3738.712830,210.568389,-1014.556782,-8901.300072
3738.715405,899.701298,1320.838075,-8269.594906
3738.717981,363.709035,210.568389,-9284.151688
3738.720557,-440.279358,-1684.547110,-9781.858789
3738.723132,555.134843,1110.269686,-8939.585234
3738.725708,4517.649069,-401.994197,-9111.868461
3738.728284,-3024.527766,-1531.406464,-9265.009107
3738.730859,-1722.832272,1014.556782,-8958.727814
3738.733435,937.986459,516.849682,-9265.009107
3738.736011,-5551.348432,-287.138712,-9820.143950
3738.738586,1225.125171,440.279358,-9150.153622
3738.741117,765.703232,-440.279358,-9724.431046
3738.743648,1205.982590,-1148.554848,-10088.140082
3738.746180,842.273555,133.998066,-8958.727814
3738.748711,114.855485,-76.570323,-9341.579430
3738.751242,574.277424,-1569.691626,-9284.151688
3738.753773,-2545.963246,823.130974,-8805.587168
3738.756304,-937.986459,497.707101,-9399.007173
3738.758835,-861.416136,0.000000,-9475.577496
3738.761366,57.427742,-38.285162,-9456.434915
3738.763898,1052.841944,765.703232,-9686.145885
3738.766429,957.129040,-1856.830338,-9801.001370
3738.768960,1110.269686,-1473.978722,-9226.723946
3738.771491,-574.277424,765.703232,-8958.727814
3738.774022,-995.414202,440.279358,-8805.587168
3738.776553,-3081.955509,1052.841944,-9035.298138
3738.779084,-3483.949706,-401.994197,-9628.718142
3738.781615,-1569.691626,-803.988394,-9647.860723
3738.784147,-1665.404530,-478.564520,-9092.725880
3738.786678,153.140646,1550.549045,-9322.436850
3738.789209,-459.421939,-803.988394,-9456.434915
3738.791740,-574.277424,574.277424,-9265.009107
3738.794271,-1167.697429,2029.113565,-8575.876198
3738.796802,-2182.254211,-727.418070,-8997.012976
3738.799333,-2545.963246,-76.570323,-9169.296203
3738.801864,-1875.972918,1550.549045,-9226.723946
3738.804396,-535.992262,-823.130974,-9360.722011
3738.806927,-899.701298,-784.845813,-9150.153622
3738.809458,1684.547110,497.707101,-9686.145885
3738.811989,-3215.953574,-689.132909,-9303.294269
3738.814520,-3560.520029,-1014.556782,-8614.161360
3738.817051,5206.781978,1263.410333,-8575.876198
3738.819582,-6221.338760,-631.705166,-8767.302006
3738.822114,4823.930362,-19.142581,-8997.012976
3738.824645,-4919.643266,995.414202,-9111.868461
3738.827176,-708.275490,-727.418070,-9131.011042
3738.829707,-4211.367776,746.560651,-8843.872330
3738.832238,-4096.512291,727.418070,-8748.159426
3738.834769,1550.549045,153.140646,-8863.014910
3738.837300,-1780.260014,-1091.127106,-8709.874264
3738.839831,1225.125171,1493.121302,-8767.302006
3738.842380,-2009.970984,842.273555,-8901.300072
3738.844932,478.564520,-1416.550979,-9035.298138
3738.847483,-2507.678085,1397.408398,-8518.448456
3738.850034,-2277.967115,-612.562586,-9131.011042
3738.852585,-1512.263883,57.427742,-9265.009107
3738.855136,-1627.119368,1646.261949,-9073.583299
3738.857687,1722.832272,1531.406464,-8939.585234
3738.860238,2163.111630,-2469.392923,-8729.016845
3738.862790,708.275490,57.427742,-8403.592971
3738.865341,631.705166,-631.705166,-9303.294269
3738.867892,325.423874,133.998066,-9245.866526
3738.870443,-803.988394,2182.254211,-8939.585234
3738.872994,153.140646,0.000000,-9016.155557
3738.875545,-612.562586,-995.414202,-9188.438784
3738.878097,-555.134843,-267.996131,-9054.440718
3738.880648,727.418070,172.283227,-9111.868461
3738.883199,19.142581,-1071.984525,-9111.868461
3738.885750,574.277424,1531.406464,-8786.444587
3738.888301,784.845813,-689.132909,-8805.587168
3738.890852,-555.134843,-2105.683888,-9858.429112
3738.893404,-1722.832272,516.849682,-9092.725880
3738.895955,-3598.805190,1186.840010,-9456.434915
3738.898506,5493.920690,-1799.402595,-9226.723946
3738.901057,-2852.244539,516.849682,-8767.302006
3738.903608,-2392.822600,1359.123237,-9016.155557
3738.906159,6987.041992,-2029.113565,-8805.587168
3738.908711,-2622.533570,210.568389,-8690.731683
3738.911262,1607.976787,1359.123237,-9571.290400
3738.913813,-593.420005,-1780.260014,-9915.856854
3738.916364,95.712904,76.570323,-9456.434915
3738.918915,2277.967115,-76.570323,-9226.723946
3738.921466,-2411.965181,-1397.408398,-9533.005238
3738.924018,-172.283227,516.849682,-8920.442653
3738.926569,-2086.541307,478.564520,-9035.298138
3738.929120,689.132909,-1397.408398,-9724.431046
3738.931671,-191.425808,1550.549045,-9494.720077
3738.934222,1397.408398,-1320.838075,-9762.716208
3738.936773,2048.256146,-516.849682,-9494.720077
3738.939324,-823.130974,-1225.125171,-9169.296203
3738.941876,-2526.820666,2565.105827,-9284.151688
3738.944442,-3330.809059,76.570323,-9207.581365
3738.947009,-1301.695494,1052.841944,-8958.727814
3738.949575,-1473.978722,325.423874,-9035.298138
3738.952142,-1282.552914,-1952.543242,-9188.438784
3738.954708,-1799.402595,727.418070,-9016.155557
3738.957275,-306.281293,1665.404530,-9418.149754
3738.959841,-574.277424,-248.853550,-9590.432981
3738.962408,-1550.549045,-1148.554848,-9150.153622
3738.964975,-1856.830338,880.558717,-9150.153622
3738.967541,-2373.680019,612.562586,-9035.298138
3738.970108,-2182.254211,-248.853550,-9054.440718
3738.972674,-1722.832272,2182.254211,-8920.442653
3738.975241,-2048.256146,-440.279358,-9571.290400
3738.977807,-3158.525832,593.420005,-9092.725880
3738.980374,918.843878,1244.267752,-9360.722011
3738.982940,1339.980656,-995.414202,-9284.151688
3738.985507,-4402.793584,-76.570323,-8977.870395
3738.988073,248.853550,1607.976787,-8863.014910
3738.990640,-5647.061336,306.281293,-9379.864592
3738.993207,-363.709035,-1282.552914,-9111.868461
3738.995773,-2545.963246,1818.545176,-8403.592971
3738.998340,-1971.685822,-593.420005,-8920.442653
3739.000906,-3560.520029,823.130974,-8901.300072
3739.003473,-1818.545176,746.560651,-9226.723946
3739.006039,229.710970,-957.129040,-9341.579430
3739.008606,-937.986459,-95.712904,-8805.587168
3739.011172,689.132909,401.994197,-8537.591037
3739.013739,-2622.533570,95.712904,-8767.302006
3739.016305,-1703.689691,-1014.556782,-8997.012976
3739.018872,-2928.814862,516.849682,-8595.018779
3739.021439,-459.421939,1014.556782,-9150.153622
3739.024005,-823.130974,880.558717,-9533.005238
3739.026572,-1588.834206,918.843878,-8901.300072
3739.029138,-76.570323,-1780.260014,-9303.294269
3739.031705,1473.978722,-2048.256146,-9207.581365
3739.034271,861.416136,765.703232,-8843.872330
3739.036838,287.138712,478.564520,-9054.440718
3739.039404,-899.701298,880.558717,-8920.442653
3739.041971,-459.421939,-210.568389,-8805.587168
3739.044537,459.421939,-38.285162,-9073.583299
3739.047115,306.281293,-1990.828403,-9552.147819
3739.049692,210.568389,229.710970,-9092.725880
3739.052269,440.279358,803.988394,-9169.296203
3739.054846,306.281293,-1263.410333,-9513.862658
3739.057423,1225.125171,478.564520,-8748.159426
3739.060000,2201.396792,-2029.113565,-8997.012976
3739.062577,-1263.410333,-114.855485,-9150.153622
3739.065154,-4307.080680,1148.554848,-8709.874264
3739.067731,-1071.984525,823.130974,-9839.286531
3739.070308,459.421939,-823.130974,-10068.997501
3739.072885,-5034.498750,669.990328,-9399.007173
3739.075462,2909.672282,401.994197,-9131.011042
3739.078040,612.562586,-2258.824534,-9456.434915
3739.080617,1933.400661,918.843878,-9341.579430
3739.083194,363.709035,-803.988394,-8958.727814
3739.085771,1129.412267,-1282.552914,-9379.864592
3739.088348,0.000000,95.712904,-9188.438784
3739.090925,-1914.258080,421.136778,-9552.147819
3739.093502,-650.847747,-440.279358,-9762.716208
3739.096079,-1014.556782,823.130974,-9131.011042
3739.098656,957.129040,-19.142581,-9609.575562
3739.101233,382.851616,-2048.256146,-9590.432981
3739.103810,2316.252277,-669.990328,-8882.157491
3739.106387,784.845813,1263.410333,-9016.155557
3739.108965,-2469.392923,1091.127106,-8958.727814
3739.111542,-4096.512291,746.560651,-9360.722011
3739.114119,-3598.805190,-38.285162,-9762.716208
3739.116696,-1167.697429,-1703.689691,-9513.862658
3739.119273,-1952.543242,-440.279358,-9073.583299
3739.121850,-1473.978722,1282.552914,-9169.296203
3739.124427,-631.705166,-995.414202,-9379.864592
3739.127004,-861.416136,-555.134843,-9054.440718
3739.129581,-191.425808,861.416136,-8920.442653
3739.132158,-2641.676150,-727.418070,-9245.866526
3739.134735,-2641.676150,631.705166,-9284.151688
3739.137313,-2335.394858,1569.691626,-9609.575562
3739.139890,-2431.107762,-1282.552914,-9533.005238
3739.142467,-459.421939,-1684.547110,-9226.723946
3739.145044,-1244.267752,2086.541307,-9111.868461
3739.147621,-2450.250342,-153.140646,-9035.298138
3739.150206,-1225.125171,287.138712,-9169.296203
3739.152791,-363.709035,708.275490,-9303.294269
3739.155377,1167.697429,-1263.410333,-9054.440718
3739.157962,-6049.055533,631.705166,-9188.438784
3739.160547,-1033.699363,-76.570323,-9322.436850
3739.163133,-2852.244539,306.281293,-8786.444587
3739.165718,-976.271621,-1110.269686,-9322.436850
3739.168303,-1914.258080,1856.830338,-8671.589102
3739.170888,-1091.127106,114.855485,-9073.583299
3739.173474,-267.996131,-401.994197,-8939.585234
3739.176059,-248.853550,1569.691626,-8729.016845
3739.178644,-1225.125171,-1320.838075,-9150.153622
3739.181230,-3981.656806,325.423874,-9035.298138
3739.183815,-2277.967115,133.998066,-8843.872330
3739.186400,-937.986459,210.568389,-9226.723946
3739.188986,1875.972918,-401.994197,-8997.012976
3739.191571,421.136778,497.707101,-8671.589102
3739.194156,-1110.269686,-765.703232,-9111.868461
3739.196741,995.414202,-2584.248408,-9303.294269
3739.199327,1091.127106,2009.970984,-8882.157491
3739.201912,1282.552914,57.427742,-9207.581365
3739.204497,-765.703232,-555.134843,-9265.009107
3739.207083,-1416.550979,631.705166,-8748.159426
3739.209668,19.142581,-1033.699363,-9303.294269
3739.212253,191.425808,-1473.978722,-9092.725880
3739.214838,957.129040,631.705166,-8767.302006
3739.217424,650.847747,306.281293,-8939.585234
3739.220009,459.421939,-1741.974853,-8901.300072
3739.222594,1473.978722,2163.111630,-8805.587168
3739.225180,1588.834206,-76.570323,-8863.014910
3739.227765,4000.799387,-2124.826469,-9073.583299
3739.230350,-3905.086483,957.129040,-8729.016845
3739.232936,976.271621,574.277424,-9513.862658
3739.235521,-4498.506488,-114.855485,-9399.007173
3739.238106,535.992262,210.568389,-9456.434915
3739.240691,3771.088418,-191.425808,-8441.878133
3739.243277,-421.136778,-1378.265818,-9705.288466
3739.245862,2201.396792,-38.285162,-9169.296203
3739.248447,-2699.103893,287.138712,-9379.864592
3739.251033,459.421939,-1722.832272,-9571.290400
3739.253624,-1493.121302,1014.556782,-8595.018779
3739.256216,-459.421939,823.130974,-9399.007173
3739.258807,-976.271621,-1071.984525,-9169.296203
3739.261399,1225.125171,1359.123237,-8729.016845
3739.263991,1569.691626,-114.855485,-9628.718142
3739.266582,459.421939,-1665.404530,-9609.575562
3739.269174,-191.425808,248.853550,-9226.723946
3739.271766,-1531.406464,2813.959378,-8977.870395
3739.274357,-4977.071008,-535.992262,-9399.007173
3739.276949,-2622.533570,-57.427742,-9188.438784
3739.279540,-1435.693560,-535.992262,-9169.296203
3739.282132,-1473.978722,-880.558717,-9226.723946
3739.284724,-401.994197,976.271621,-9016.155557
3739.287315,-995.414202,2163.111630,-9475.577496
3739.289907,-440.279358,-1014.556782,-9533.005238
3739.292499,-1914.258080,-957.129040,-9169.296203
3739.295090,-2029.113565,1071.984525,-9092.725880
3739.297682,-2469.392923,-555.134843,-9054.440718
3739.300273,-2411.965181,574.277424,-9303.294269
3739.302865,-727.418070,1895.115499,-8709.874264
3739.305457,1167.697429,-1665.404530,-9303.294269
3739.308048,-1416.550979,-172.283227,-9150.153622
3739.310640,-1799.402595,1148.554848,-9533.005238
3739.313232,-459.421939,-1033.699363,-9647.860723
3739.315823,-4421.936165,478.564520,-9303.294269
3739.318415,-2201.396792,516.849682,-9552.147819
3739.321006,0.000000,-95.712904,-8824.729749
3739.323598,-3579.662610,-344.566454,-8997.012976
3739.326190,-880.558717,2201.396792,-8556.733618
3739.328781,-3215.953574,-344.566454,-9207.581365
3739.331373,-1263.410333,-401.994197,-9284.151688
3739.333965,-727.418070,1856.830338,-8939.585234
3739.336556,-516.849682,-1244.267752,-9494.720077
3739.339148,-1091.127106,-287.138712,-8939.585234
3739.341740,-2756.531635,1607.976787,-8384.450390
3739.344331,-2239.681954,-1014.556782,-8939.585234
3739.346923,-1665.404530,880.558717,-9226.723946
3739.349514,478.564520,1761.117434,-9169.296203
3739.352106,-535.992262,516.849682,-9188.438784
3739.354698,-1167.697429,-1914.258080,-9150.153622
3739.357293,1971.685822,191.425808,-9303.294269
3739.359889,976.271621,-631.705166,-9571.290400
3739.362484,823.130974,-1129.412267,-9226.723946
3739.365079,-995.414202,2163.111630,-8537.591037
3739.367675,-803.988394,-650.847747,-9092.725880
3739.370270,248.853550,-1186.840010,-9035.298138
3739.372866,-133.998066,1091.127106,-8920.442653
3739.375461,0.000000,-306.281293,-9609.575562
3739.378057,-727.418070,516.849682,-9284.151688
3739.380652,803.988394,535.992262,-8786.444587
3739.383248,382.851616,976.271621,-9245.866526
3739.385843,3790.230998,-2220.539373,-8480.163294
3739.388438,1186.840010,899.701298,-8327.022648
3739.391034,-4345.365842,689.132909,-8997.012976
3739.393629,957.129040,-478.564520,-8748.159426
3739.396225,4307.080680,-114.855485,-8480.163294
3739.398820,-1071.984525,133.998066,-9035.298138
3739.401416,1933.400661,-497.707101,-9571.290400
3739.404011,-803.988394,210.568389,-9284.151688
3739.406607,1971.685822,57.427742,-9284.151688
3739.409202,1033.699363,-1703.689691,-8920.442653
3739.411797,-1875.972918,1129.412267,-8920.442653
3739.414393,57.427742,516.849682,-8901.300072
3739.416988,-708.275490,-746.560651,-9016.155557
3739.419584,899.701298,555.134843,-9475.577496
3739.422179,287.138712,-708.275490,-9686.145885
3739.424775,1665.404530,-2526.820666,-9494.720077
3739.427370,248.853550,306.281293,-8958.727814
3739.429966,-2622.533570,1933.400661,-9226.723946
3739.432561,-3790.230998,-210.568389,-8901.300072
3739.435157,-1607.976787,1263.410333,-8786.444587
3739.437752,-1684.547110,-1607.976787,-9131.011042
3739.440347,-2584.248408,-1588.834206,-9169.296203
3739.442943,-1129.412267,918.843878,-9131.011042
3739.445538,-1033.699363,1684.547110,-9475.577496
3739.448134,-287.138712,-937.986459,-9667.003304
3739.450729,-1741.974853,-574.277424,-9035.298138
3739.453325,-2105.683888,669.990328,-9188.438784
3739.455920,-2718.246474,-1282.552914,-8958.727814
3739.458516,-2239.681954,1741.974853,-8882.157491
3739.461114,114.855485,1225.125171,-8939.585234
3739.463713,-765.703232,-1856.830338,-9590.432981
3739.466311,-5264.209720,57.427742,-9513.862658
3739.468910,-133.998066,1205.982590,-9647.860723
3739.471509,-76.570323,-1339.980656,-9475.577496
3739.474107,-1646.261949,-287.138712,-9475.577496
3739.476706,-4173.082614,497.707101,-9322.436850
3739.479304,-2545.963246,-1033.699363,-9590.432981
3739.481903,-1952.543242,229.710970,-8614.161360
3739.484501,-2143.969050,1263.410333,-9207.581365
3739.487100,-1205.982590,-1052.841944,-9437.292334
3739.489699,-2354.537438,669.990328,-9131.011042
3739.492297,-861.416136,440.279358,-9494.720077
3739.494896,-306.281293,-612.562586,-9418.149754
3739.497494,-1493.121302,-1301.695494,-9150.153622
3739.500093,-2086.541307,1033.699363,-8461.020714
3739.502692,-2239.681954,440.279358,-9054.440718
3739.505290,-1952.543242,497.707101,-9245.866526
3739.507889,1627.119368,2105.683888,-9073.583299
3739.510487,1569.691626,-2297.109696,-9322.436850
3739.513086,-1454.836141,-535.992262,-9169.296203
3739.515685,976.271621,-612.562586,-9667.003304
3739.518283,1052.841944,76.570323,-9667.003304
3739.520882,421.136778,-995.414202,-9226.723946
3739.523480,535.992262,2833.101958,-8633.303941
3739.526079,-1359.123237,-880.558717,-8997.012976
3739.528678,-746.560651,-1320.838075,-9169.296203
3739.531276,248.853550,1339.980656,-9054.440718
3739.533875,1359.123237,-995.414202,-9475.577496
3739.536473,-1263.410333,1416.550979,-9437.292334
3739.539072,-229.710970,497.707101,-8537.591037
3739.541671,861.416136,-267.996131,-9494.720077
3739.544269,-6221.338760,-593.420005,-9016.155557
3739.546868,4823.930362,1263.410333,-9111.868461
3739.549466,-5608.776174,-306.281293,-8977.870395
3739.552065,5723.631659,-937.986459,-9284.151688
3739.554664,-880.558717,440.279358,-8480.163294
3739.557262,172.283227,-76.570323,-9743.573627
3739.559861,3560.520029,-1741.974853,-9494.720077
3739.562459,-2928.814862,172.283227,-9073.583299
3739.565059,3809.373579,191.425808,-8997.012976
3739.567659,-2699.103893,-593.420005,-8824.729749
3739.570259,267.996131,172.283227,-8997.012976
3739.572859,-612.562586,1569.691626,-8882.157491
3739.575459,669.990328,-1588.834206,-9265.009107
3739.578059,1071.984525,1493.121302,-9322.436850
3739.580659,803.988394,-612.562586,-9265.009107
3739.583259,880.558717,-2124.826469,-9284.151688
3739.585859,-2660.818731,3215.953574,-8786.444587
3739.588459,-3158.525832,1397.408398,-9188.438784
3739.591059,-3120.240670,-1339.980656,-9265.009107
3739.593658,-784.845813,-19.142581,-8652.446522
3739.596258,-2488.535504,-1052.841944,-8786.444587
3739.598858,-957.129040,114.855485,-9150.153622
3739.601458,-784.845813,918.843878,-9284.151688
3739.604058,-287.138712,1761.117434,-9647.860723
3739.606658,-1607.976787,-2794.816797,-9399.007173
3739.609258,-2392.822600,631.705166,-8958.727814
3739.611858,-2277.967115,1148.554848,-9207.581365
3739.614458,-1990.828403,-2182.254211,-8997.012976
3739.617058,-459.421939,727.418070,-8709.874264
3739.619658,3311.666478,95.712904,-9131.011042
3739.622258,-516.849682,-784.845813,-9322.436850
3739.624858,-4115.654872,344.566454,-9188.438784
3739.627458,-2067.398726,2201.396792,-9418.149754
3739.630057,-2603.390989,-880.558717,-9724.431046
3739.632657,1244.267752,-401.994197,-8671.589102
3739.635257,-4268.795518,918.843878,-8843.872330
3739.637857,-1856.830338,-421.136778,-9265.009107
3739.640457,-2737.389054,746.560651,-9169.296203
3739.643057,-1856.830338,1014.556782,-9647.860723
3739.645657,-899.701298,-172.283227,-9379.864592
3739.648257,-1627.119368,-95.712904,-9284.151688
3739.650857,-1225.125171,708.275490,-9571.290400
3739.653457,-2928.814862,-1378.265818,-9456.434915
3739.656057,-2143.969050,287.138712,-9131.011042
3739.658657,-1914.258080,1780.260014,-8882.157491
3739.661257,746.560651,784.845813,-9265.009107
3739.663856,133.998066,-1454.836141,-9207.581365
3739.666456,-708.275490,191.425808,-9284.151688
3739.669057,957.129040,-2009.970984,-9801.001370
3739.671658,880.558717,497.707101,-9379.864592
3739.674259,1014.556782,1014.556782,-9475.577496
3739.676860,-287.138712,267.996131,-8997.012976
3739.679460,-1282.552914,-937.986459,-9054.440718
3739.682061,-19.142581,267.996131,-9016.155557
3739.684662,440.279358,-114.855485,-9092.725880
3739.687263,-76.570323,-382.851616,-9035.298138
3739.689864,-918.843878,1856.830338,-9341.579430
3739.692465,1761.117434,-1282.552914,-9456.434915
3739.695065,-1110.269686,-516.849682,-9379.864592
3739.697666,-3885.943902,1435.693560,-8020.741355
3739.700267,5608.776174,-248.853550,-8958.727814
3739.702868,-3809.373579,-1588.834206,-8958.727814
3739.705469,497.707101,1875.972918,-9054.440718
3739.708069,2794.816797,-516.849682,-9322.436850
3739.710670,-937.986459,-1741.974853,-9322.436850
3739.713271,4039.084549,1244.267752,-9092.725880
3739.715872,-2239.681954,-1454.836141,-8997.012976
3739.718473,1014.556782,-2277.967115,-9265.009107
3739.721074,-823.130974,2201.396792,-8422.735552
3739.723674,-631.705166,172.283227,-9265.009107
3739.726275,-95.712904,497.707101,-9016.155557
3739.728876,746.560651,0.000000,-8786.444587
3739.731477,1780.260014,-172.283227,-9150.153622
3739.734078,19.142581,-2718.246474,-9111.868461
3739.736678,784.845813,1359.123237,-8748.159426
3739.739279,-1416.550979,2105.683888,-9035.298138
3739.741880,-2201.396792,-765.703232,-9188.438784
3739.744481,-3713.660675,-306.281293,-8882.157491
3739.747082,-2220.539373,-650.847747,-9226.723946
3739.749683,-1627.119368,-1014.556782,-8748.159426
3739.752283,-287.138712,2316.252277,-8537.591037
3739.754884,-325.423874,937.986459,-8997.012976
3739.757485,-1397.408398,-2124.826469,-9513.862658
3739.760086,-1091.127106,-210.568389,-8939.585234
3739.762687,-2009.970984,631.705166,-8882.157491
3739.765287,-3043.670347,-650.847747,-9418.149754
3739.767888,-1225.125171,995.414202,-8499.305875
3739.770489,-1914.258080,57.427742,-9456.434915
3739.773091,-4900.500685,-1186.840010,-9571.290400
3739.775692,-1933.400661,-535.992262,-9475.577496
3739.778294,-2105.683888,2392.822600,-9322.436850
3739.780896,-2086.541307,-1301.695494,-9609.575562
3739.783497,574.277424,-133.998066,-9054.440718
3739.786099,-5111.069074,803.988394,-9494.720077
3739.788700,-1110.269686,-861.416136,-9475.577496
3739.791302,-3522.234867,325.423874,-8805.587168
3739.793904,803.988394,593.420005,-9341.579430
3739.796505,-1071.984525,287.138712,-9150.153622
3739.799107,-1244.267752,-976.271621,-9169.296203
3739.801708,-1397.408398,459.421939,-9322.436850
3739.804310,-2220.539373,-1148.554848,-9322.436850
3739.806912,-2048.256146,765.703232,-9226.723946
3739.809513,-2794.816797,631.705166,-9552.147819
3739.812115,765.703232,267.996131,-9437.292334
3739.814716,612.562586,-2584.248408,-8977.870395
3739.817318,650.847747,861.416136,-8843.872330
3739.819920,325.423874,-1550.549045,-9571.290400
3739.822521,1129.412267,727.418070,-9284.151688
3739.825123,1110.269686,1627.119368,-9322.436850
3739.827724,-287.138712,0.000000,-9552.147819
3739.830326,-1856.830338,-937.986459,-9226.723946
3739.832928,19.142581,382.851616,-9341.579430
3739.835529,823.130974,842.273555,-8824.729749
3739.838131,-382.851616,-1071.984525,-9188.438784
3739.840732,1052.841944,2488.535504,-8652.446522
3739.843334,1339.980656,-746.560651,-9245.866526
3739.845936,3962.514226,-1244.267752,-8805.587168
3739.848537,-4957.928427,2009.970984,-9169.296203
3739.851139,-210.568389,210.568389,-9513.862658
3739.853741,2105.683888,-918.843878,-9379.864592
3739.856342,-2756.531635,478.564520,-8480.163294
3739.858944,1761.117434,1301.695494,-9437.292334
3739.861545,-38.285162,-1933.400661,-9092.725880
3739.864147,3407.379382,1435.693560,-8824.729749
3739.866749,38.285162,-248.853550,-9226.723946
3739.869350,-1952.543242,-574.277424,-9245.866526
3739.871952,-287.138712,2737.389054,-8939.585234
3739.874553,-784.845813,-1148.554848,-9360.722011
3739.877155,2048.256146,-2143.969050,-9494.720077
3739.879757,-114.855485,976.271621,-8882.157491
3739.882358,1339.980656,-1761.117434,-9188.438784
3739.884959,-229.710970,-497.707101,-8805.587168
3739.887560,-593.420005,3311.666478,-8556.733618
3739.890161,-3464.807125,1378.265818,-9092.725880
3739.892762,-3005.385186,-1359.123237,-9322.436850
3739.895363,-1282.552914,-497.707101,-8977.870395
3739.897964,-2660.818731,76.570323,-8939.585234
3739.900566,-669.990328,-880.558717,-9016.155557
3739.903167,-899.701298,2431.107762,-8748.159426
3739.905768,267.996131,918.843878,-9322.436850
3739.908369,-1741.974853,-2277.967115,-8805.587168
3739.910970,-976.271621,1110.269686,-8231.309744
3739.913571,-2679.961312,1205.982590,-9169.296203
3739.916172,-1320.838075,-650.847747,-9245.866526
3739.918773,382.851616,-957.129040,-9265.009107
3739.921375,-4134.797453,344.566454,-9475.577496
3739.923976,-325.423874,-1263.410333,-9494.720077
3739.926577,-2105.683888,1282.552914,-8863.014910
3739.929178,344.566454,497.707101,-8977.870395
3739.931779,-727.418070,-1971.685822,-9073.583299
3739.934380,-5187.639397,-746.560651,-8786.444587
3739.936981,-1416.550979,2201.396792,-9322.436850
3739.939582,-3522.234867,-133.998066,-9245.866526
3739.942184,-153.140646,-76.570323,-9265.009107
3739.944785,-937.986459,1703.689691,-9188.438784
3739.947386,-1665.404530,-2756.531635,-9399.007173
3739.949987,-1588.834206,880.558717,-8748.159426
3739.952588,-1780.260014,-1301.695494,-9131.011042
3739.955189,133.998066,-95.712904,-9437.292334
3739.957790,-1780.260014,2201.396792,-9265.009107
3739.960391,-803.988394,918.843878,-9475.577496
3739.962993,1014.556782,-2258.824534,-9322.436850
3739.965594,1110.269686,-976.271621,-9360.722011
3739.968195,57.427742,-363.709035,-9839.286531
3739.970796,1091.127106,-57.427742,-9590.432981
3739.973397,612.562586,1416.550979,-8997.012976
3739.975998,1052.841944,650.847747,-8977.870395
3739.978599,-708.275490,-459.421939,-9456.434915
3739.981200,-1531.406464,-1359.123237,-9456.434915
3739.983801,497.707101,1990.828403,-9150.153622
3739.986401,-516.849682,-918.843878,-9839.286531
3739.989002,1588.834206,-593.420005,-8958.727814
3739.991603,363.709035,440.279358,-9647.860723
3739.994203,-5742.774240,267.996131,-8882.157491
3739.996804,4230.510357,-555.134843,-9054.440718
3739.999405,-4747.360038,803.988394,-8863.014910
3740.002005,38.285162,248.853550,-9590.432981
3740.004606,4996.213589,-1033.699363,-8958.727814
3740.007207,-2297.109696,631.705166,-9724.431046
3740.009807,4134.797453,-746.560651,-9437.292334
3740.012408,-2852.244539,555.134843,-9322.436850
3740.015009,1282.552914,-38.285162,-9111.868461
3740.017609,-306.281293,1665.404530,-8595.018779
3740.020210,-861.416136,-2143.969050,-9360.722011
3740.022811,421.136778,3349.951640,-9016.155557
3740.025411,-114.855485,-1416.550979,-9494.720077
3740.028012,1454.836141,-2182.254211,-9207.581365
3740.030613,191.425808,1703.689691,-9016.155557
3740.033213,516.849682,1435.693560,-8920.442653
3740.035814,-4632.504554,-76.570323,-9035.298138
3740.038415,-1761.117434,612.562586,-8786.444587
3740.041015,-1378.265818,-1186.840010,-8882.157491
3740.043616,-2316.252277,-1435.693560,-8633.303941
3740.046217,-1722.832272,2794.816797,-8767.302006
3740.048817,-1225.125171,1014.556782,-9188.438784
3740.051418,191.425808,-765.703232,-9265.009107
3740.054018,-1914.258080,-535.992262,-8920.442653
3740.056619,-1454.836141,401.994197,-9188.438784
3740.059220,-1933.400661,-746.560651,-8882.157491
3740.061820,-1895.115499,1588.834206,-8575.876198
3740.064421,1914.258080,-267.996131,-8805.587168
3740.067022,-229.710970,-1129.412267,-8709.874264
3740.069623,-1990.828403,1167.697429,-8958.727814
3740.072223,-2277.967115,2335.394858,-9379.864592
3740.074824,-4249.652938,-1052.841944,-9552.147819
3740.077425,459.421939,1627.119368,-8729.016845
3740.080025,-3885.943902,-1205.982590,-9131.011042
3740.082626,-1952.543242,-689.132909,-9188.438784
3740.085227,-2450.250342,2163.111630,-8786.444587
3740.087827,-1205.982590,172.283227,-9341.579430
3740.090428,-133.998066,-478.564520,-8843.872330
3740.093029,-2871.387120,-1607.976787,-8977.870395
3740.095629,-421.136778,650.847747,-9245.866526
3740.098230,-3522.234867,-842.273555,-9360.722011
3740.100831,-1263.410333,1301.695494,-9303.294269
3740.103432,-555.134843,1875.972918,-9188.438784
3740.106032,-765.703232,-2163.111630,-9418.149754
3740.108633,-1933.400661,-1052.841944,-8824.729749
3740.111234,2699.103893,-1148.554848,-9762.716208
3740.113834,2641.676150,114.855485,-9724.431046
3740.116435,172.283227,784.845813,-9092.725880
3740.119036,-248.853550,2316.252277,-9284.151688
3740.121636,-2086.541307,-2124.826469,-9609.575562
3740.124237,669.990328,-459.421939,-9265.009107
3740.126838,-937.986459,-459.421939,-9686.145885
3740.129439,555.134843,-248.853550,-9418.149754
3740.132039,918.843878,593.420005,-8748.159426
3740.134640,1186.840010,-937.986459,-9437.292334
3740.137241,-5417.350366,516.849682,-9628.718142
3740.139841,19.142581,-153.140646,-9150.153622
3740.142442,1607.976787,1263.410333,-8997.012976
3740.145043,1914.258080,-2488.535504,-9571.290400
3740.147643,-842.273555,229.710970,-8977.870395
3740.150244,-19.142581,133.998066,-9647.860723
3740.152845,1339.980656,-1550.549045,-9475.577496
3740.155445,1397.408398,-306.281293,-9092.725880
3740.158046,1033.699363,114.855485,-9035.298138
3740.160647,-1531.406464,1378.265818,-9418.149754
3740.163248,-1205.982590,-918.843878,-9322.436850
3740.165848,459.421939,2392.822600,-9437.292334
3740.168448,57.427742,-2813.959378,-9781.858789
3740.171047,363.709035,-2833.101958,-9054.440718
3740.173646,1454.836141,1646.261949,-8441.878133
3740.176245,-746.560651,1416.550979,-8805.587168
3740.178845,-3043.670347,880.558717,-9073.583299
3740.181444,-2679.961312,-191.425808,-9111.868461
3740.184043,-1512.263883,-248.853550,-9131.011042
3740.186643,-3273.381317,-1741.974853,-9035.298138
3740.189242,-1665.404530,2986.242605,-9092.725880
3740.191841,-708.275490,1167.697429,-9207.581365
3740.194440,-669.990328,-1339.980656,-9035.298138
3740.197040,-555.134843,287.138712,-8480.163294
3740.199639,-823.130974,-210.568389,-8537.591037
3740.202238,-3713.660675,-38.285162,-9131.011042
3740.204838,-3177.668413,2641.676150,-9016.155557
3740.207437,-4019.941968,593.420005,-9207.581365
3740.210036,-57.427742,-1225.125171,-9437.292334
3740.212635,1761.117434,0.000000,-8748.159426
3740.215235,-2928.814862,114.855485,-9131.011042
3740.217834,-3675.375514,-459.421939,-8748.159426
3740.220433,-2603.390989,899.701298,-8690.731683
3740.223033,-1320.838075,306.281293,-8633.303941
3740.225632,-2277.967115,38.285162,-8920.442653
3740.228231,-3139.383251,1703.689691,-8863.014910
3740.230830,-535.992262,765.703232,-9437.292334
3740.233430,-899.701298,-2431.107762,-9131.011042
3740.236029,-1684.547110,650.847747,-8652.446522
3740.238628,-2124.826469,-861.416136,-9188.438784
3740.241228,-842.273555,593.420005,-9111.868461
3740.243827,-401.994197,2258.824534,-8882.157491
3740.246426,-1148.554848,1703.689691,-8901.300072
3740.249025,976.271621,-3369.094221,-8939.585234
3740.251625,1148.554848,-1186.840010,-9303.294269
3740.254224,1665.404530,325.423874,-9724.431046
3740.256823,631.705166,-459.421939,-9418.149754
3740.259423,555.134843,1550.549045,-8690.731683
3740.262022,593.420005,-19.142581,-8977.870395
3740.264621,-1646.261949,-1588.834206,-9111.868461
3740.267220,-344.566454,133.998066,-8843.872330
3740.269820,746.560651,957.129040,-8824.729749
3740.272418,516.849682,-2124.826469,-9437.292334
3740.275016,1895.115499,-440.279358,-9609.575562
3740.277614,-4555.934230,-325.423874,-9992.427178
3740.280212,-689.132909,-401.994197,-9571.290400
3740.282810,2163.111630,-1531.406464,-8977.870395
3740.285408,-5647.061336,1646.261949,-9686.145885
3740.288006,957.129040,-1378.265818,-9513.862658
3740.290604,1416.550979,-574.277424,-9341.579430
3740.293202,574.277424,-153.140646,-9552.147819
3740.295800,2947.957443,-1741.974853,-9475.577496
3740.298398,-2029.113565,287.138712,-9207.581365
3740.300996,497.707101,1473.978722,-9552.147819
3740.303595,-1741.974853,-1071.984525,-9456.434915
3740.306193,746.560651,-631.705166,-9494.720077
3740.308791,-229.710970,957.129040,-9437.292334
3740.311389,0.000000,-1646.261949,-9303.294269
3740.313987,689.132909,-287.138712,-8863.014910
3740.316585,-803.988394,3522.234867,-8958.727814
3740.319183,-2086.541307,-1033.699363,-9628.718142
3740.321781,-3656.232933,-267.996131,-9360.722011
3740.324379,-1741.974853,-363.709035,-9456.434915
3740.326977,-2947.957443,-1263.410333,-9226.723946
3740.329575,-1378.265818,38.285162,-8805.587168
3740.332173,-153.140646,2124.826469,-8977.870395
3740.334771,-708.275490,133.998066,-9265.009107
3740.337369,-1454.836141,-1627.119368,-8824.729749
3740.339967,-1129.412267,1339.980656,-8843.872330
3740.342565,-1493.121302,306.281293,-8958.727814
3740.345164,-1473.978722,306.281293,-9073.583299
3740.347762,-899.701298,421.136778,-9111.868461
3740.350360,-1397.408398,-497.707101,-9284.151688
3740.352958,-38.285162,-899.701298,-8729.016845
3740.355556,708.275490,1359.123237,-8480.163294
3740.358154,-5264.209720,76.570323,-9399.007173
3740.360752,-2220.539373,995.414202,-9054.440718
3740.363350,-4594.219392,-172.283227,-9150.153622
3740.365948,-401.994197,95.712904,-9513.862658
3740.368546,-3196.810994,440.279358,-8920.442653
3740.371144,-1684.547110,-114.855485,-8805.587168
3740.373742,-114.855485,306.281293,-8709.874264
3740.376338,-2316.252277,-2526.820666,-8824.729749
3740.378935,-229.710970,2239.681954,-8786.444587
3740.381531,-2105.683888,325.423874,-9284.151688
3740.384127,669.990328,861.416136,-8958.727814
3740.386723,-689.132909,306.281293,-8767.302006
3740.389320,-133.998066,-1205.982590,-9188.438784
3740.391916,1091.127106,-2067.398726,-9475.577496
3740.394512,1627.119368,1780.260014,-8901.300072
3740.397108,2469.392923,727.418070,-8939.585234
3740.399704,-95.712904,-172.283227,-8843.872330
3740.402301,-899.701298,114.855485,-8729.016845
3740.404897,229.710970,-497.707101,-9054.440718
3740.407493,-1052.841944,-631.705166,-8977.870395
3740.410089,1071.984525,459.421939,-8882.157491
3740.412686,2163.111630,-823.130974,-9035.298138
3740.415282,-899.701298,-2239.681954,-9781.858789
3740.417878,-2182.254211,1607.976787,-8977.870395
3740.420474,880.558717,-248.853550,-8786.444587
3740.423070,-669.990328,-708.275490,-8690.731683
3740.425667,4307.080680,1416.550979,-8901.300072
3740.428263,1435.693560,153.140646,-9590.432981
3740.430859,172.283227,-1033.699363,-9533.005238
3740.433455,2335.394858,382.851616,-9016.155557
3740.436052,-421.136778,401.994197,-9265.009107
3740.438648,669.990328,-1550.549045,-9188.438784
3740.441244,-1129.412267,2431.107762,-8614.161360
3740.443840,803.988394,-727.418070,-9360.722011
3740.446436,-95.712904,-976.271621,-9150.153622
3740.449033,-133.998066,-1914.258080,-9284.151688
3740.451629,-363.709035,2105.683888,-9111.868461
3740.454225,-746.560651,363.709035,-9303.294269
3740.456821,-2277.967115,497.707101,-9150.153622
3740.459418,-2545.963246,-459.421939,-9513.862658
3740.462014,-1875.972918,-2258.824534,-9265.009107
3740.464610,-2641.676150,823.130974,-8480.163294
3740.467206,-1148.554848,2737.389054,-9054.440718
3740.469803,-1493.121302,-38.285162,-9647.860723
3740.472399,-478.564520,-746.560651,-9265.009107
3740.474995,-1091.127106,478.564520,-9016.155557
3740.477591,-2392.822600,-976.271621,-9647.860723
3740.480186,-1818.545176,746.560651,-8805.587168
3740.482781,-5608.776174,1990.828403,-9628.718142
3740.485376,-2086.541307,-1339.980656,-9552.147819
3740.487971,-1186.840010,172.283227,-9647.860723
3740.490565,2316.252277,76.570323,-8767.302006
3740.493160,1014.556782,-133.998066,-8939.585234
3740.495755,-6489.334891,0.000000,-8958.727814
3740.498350,-2469.392923,1627.119368,-8882.157491
3740.500945,-2488.535504,-746.560651,-9303.294269
3740.503540,-1531.406464,-153.140646,-9188.438784
3740.506134,-2029.113565,1263.410333,-8920.442653
3740.508729,-1225.125171,-842.273555,-8920.442653
3740.511324,-1014.556782,-401.994197,-8843.872330
3740.513919,-2545.963246,306.281293,-9035.298138
3740.516514,-133.998066,-133.998066,-9475.577496
3740.519109,-1225.125171,2124.826469,-9284.151688
3740.521703,-1148.554848,1129.412267,-9437.292334
3740.524298,-957.129040,-1780.260014,-9322.436850
3740.526893,1148.554848,-2718.246474,-9207.581365
3740.529488,1875.972918,1359.123237,-9016.155557
3740.532083,1665.404530,727.418070,-9265.009107
3740.534678,153.140646,172.283227,-9092.725880
3740.537272,382.851616,382.851616,-8977.870395
3740.539867,-401.994197,-1148.554848,-9054.440718
3740.542462,-1512.263883,-650.847747,-9111.868461
3740.545057,-727.418070,1493.121302,-8786.444587
3740.547652,1818.545176,114.855485,-8767.302006
3740.550247,2565.105827,-2450.250342,-9437.292334
3740.552841,-2048.256146,1646.261949,-8441.878133
3740.555436,-784.845813,-191.425808,-8939.585234
3740.558031,2392.822600,-2182.254211,-9265.009107
3740.560626,-1186.840010,1301.695494,-9035.298138
3740.563221,-535.992262,-478.564520,-9762.716208
3740.565816,1129.412267,-1761.117434,-9188.438784
3740.568410,1263.410333,401.994197,-9245.866526
3740.571005,3062.812928,-344.566454,-9341.579430
3740.573600,-1588.834206,-880.558717,-9035.298138
3740.576195,76.570323,1990.828403,-8537.591037
3740.578790,229.710970,-421.136778,-8882.157491
3740.581385,382.851616,-1837.687757,-9322.436850
3740.583978,612.562586,421.136778,-8920.442653
3740.586571,-1607.976787,2239.681954,-9111.868461
3740.589163,-248.853550,-727.418070,-9150.153622
3740.591756,-1416.550979,2048.256146,-8652.446522
3740.594349,-2335.394858,-1933.400661,-9437.292334
3740.596942,-2737.389054,-1014.556782,-9150.153622
3740.599535,-1665.404530,574.277424,-8384.450390
3740.602128,-1301.695494,1684.547110,-8575.876198
3740.604721,-1512.263883,-784.845813,-9533.005238
3740.607314,-1033.699363,-478.564520,-9265.009107
3740.609907,-1282.552914,-95.712904,-9188.438784
3740.612500,-574.277424,-478.564520,-9016.155557
3740.615093,-2967.100024,1416.550979,-8422.735552
3740.617686,1952.543242,1339.980656,-8709.874264
3740.620279,-765.703232,-2373.680019,-8997.012976
3740.622872,-2967.100024,1225.125171,-8556.733618
3740.625465,3426.521963,2201.396792,-9073.583299
3740.628058,-2737.389054,-1531.406464,-9418.149754
3740.630651,-3311.666478,497.707101,-9131.011042
3740.633244,-2086.541307,2048.256146,-9188.438784
3740.635836,-4785.645200,-2029.113565,-9552.147819
3740.638429,650.847747,1378.265818,-8997.012976
3740.641022,-3637.090352,248.853550,-9207.581365
3740.643615,-57.427742,-1550.549045,-9284.151688
3740.646208,-2431.107762,-229.710970,-9054.440718
3740.648801,-631.705166,421.136778,-9303.294269
3740.651394,-57.427742,727.418070,-9552.147819
3740.653987,-1550.549045,1512.263883,-9016.155557
3740.656580,1435.693560,-803.988394,-9265.009107
3740.659173,-1512.263883,-1856.830338,-9322.436850
3740.661766,478.564520,-746.560651,-9475.577496
3740.664359,1397.408398,1167.697429,-9494.720077
3740.666952,1971.685822,516.849682,-9284.151688
3740.669545,421.136778,-57.427742,-9169.296203
3740.672138,-1531.406464,38.285162,-9188.438784
3740.674731,363.709035,-995.414202,-9686.145885
3740.677324,-2143.969050,1110.269686,-9552.147819
3740.679917,1167.697429,669.990328,-9322.436850
3740.682509,612.562586,-1741.974853,-9705.288466
3740.685102,-4249.652938,-689.132909,-8920.442653
3740.687694,1627.119368,957.129040,-9265.009107
3740.690285,-1933.400661,-689.132909,-9169.296203
3740.692876,-2871.387120,727.418070,-9839.286531
3740.695468,5761.916821,1301.695494,-8843.872330
3740.698059,-1780.260014,-1282.552914,-9628.718142
3740.700650,2794.816797,-1933.400661,-9552.147819
3740.703242,-478.564520,2622.533570,-9226.723946
3740.705833,459.421939,-918.843878,-9341.579430
3740.708424,19.142581,440.279358,-8690.731683
3740.711016,-344.566454,-363.709035,-8977.870395
3740.713607,1129.412267,248.853550,-9092.725880
3740.716198,-1454.836141,-1952.543242,-9016.155557
3740.718790,1416.550979,1435.693560,-8882.157491
3740.721381,-650.847747,1320.838075,-8920.442653
3740.723972,-957.129040,-1607.976787,-9188.438784
3740.726564,-2469.392923,401.994197,-8748.159426
3740.729155,-1971.685822,-899.701298,-8958.727814
3740.731746,-1684.547110,-401.994197,-8729.016845
3740.734338,-1569.691626,2545.963246,-8499.305875
3740.736929,-976.271621,1205.982590,-9073.583299
3740.739520,-1741.974853,-1263.410333,-9035.298138
3740.742112,-114.855485,535.992262,-8595.018779
3740.744703,-114.855485,478.564520,-9054.440718
3740.747294,-1186.840010,-2469.392923,-9150.153622
3740.749886,-5647.061336,1435.693560,-8958.727814
3740.752477,-287.138712,861.416136,-9111.868461
3740.755068,1359.123237,-2258.824534,-9016.155557
3740.757659,-478.564520,325.423874,-8422.735552
3740.760251,-3943.371645,1129.412267,-9054.440718
3740.762842,-3905.086483,-421.136778,-9188.438784
3740.765433,-3637.090352,306.281293,-9131.011042
3740.768025,-1646.261949,612.562586,-9150.153622
3740.770616,-1684.547110,-1761.117434,-9016.155557
3740.773207,-1454.836141,1952.543242,-8882.157491
3740.775799,-1895.115499,-803.988394,-9016.155557
3740.778390,-497.707101,-1129.412267,-8824.729749
3740.780981,-287.138712,287.138712,-8595.018779
3740.783573,-421.136778,1952.543242,-9571.290400
3740.786164,-2009.970984,-535.992262,-9475.577496
3740.788755,-1588.834206,-1761.117434,-9073.583299
3740.791345,1588.834206,153.140646,-9360.722011
3740.793935,287.138712,-2373.680019,-9475.577496
3740.796525,957.129040,2124.826469,-9054.440718
3740.799116,1531.406464,421.136778,-9188.438784
3740.801706,1569.691626,-1244.267752,-9092.725880
3740.804296,-784.845813,-1052.841944,-9341.579430
3740.806886,-937.986459,382.851616,-9609.575562
3740.809476,-344.566454,-1071.984525,-9590.432981
3740.812066,803.988394,-287.138712,-9533.005238
3740.814656,-2392.822600,19.142581,-9915.856854
3740.817246,-1359.123237,-1225.125171,-9705.288466
3740.819836,2163.111630,-421.136778,-9131.011042
3740.822426,-1684.547110,76.570323,-9226.723946
3740.825016,-1091.127106,-287.138712,-10011.569758
3740.827606,1914.258080,-516.849682,-9647.860723
3740.830196,76.570323,-210.568389,-9571.290400
3740.832786,2488.535504,-2009.970984,-9552.147819
3740.835376,-2009.970984,918.843878,-9456.434915
3740.837966,2124.826469,382.851616,-9934.999435
3740.840556,-899.701298,-880.558717,-9303.294269
3740.843146,-325.423874,-1722.832272,-9054.440718
3740.845736,-229.710970,669.990328,-9245.866526
3740.848326,-325.423874,-19.142581,-9188.438784
3740.850916,325.423874,765.703232,-8939.585234
3740.853506,-2086.541307,2469.392923,-9284.151688
3740.856096,-2297.109696,-2488.535504,-9571.290400
3740.858686,-2143.969050,38.285162,-9092.725880
3740.861276,-2009.970984,1052.841944,-8556.733618
3740.863866,-1607.976787,1761.117434,-8920.442653
3740.866456,-1741.974853,-287.138712,-9016.155557
3740.869046,-899.701298,1435.693560,-8939.585234
3740.871636,-2067.398726,-746.560651,-9341.579430
3740.874226,-555.134843,-937.986459,-8863.014910
3740.876817,-114.855485,1531.406464,-9169.296203
3740.879407,-421.136778,-1531.406464,-9762.716208
3740.881997,-6814.758765,-2431.107762,-8671.589102
3740.884587,2737.389054,2182.254211,-9226.723946
3740.887177,-4383.651003,-1397.408398,-8997.012976
3740.889767,-2833.101958,746.560651,-9073.583299
3740.892357,-1167.697429,1588.834206,-8824.729749
3740.894945,-4115.654872,-1110.269686,-9073.583299
3740.897533,-1454.836141,1148.554848,-8977.870395
3740.900122,-5379.065205,937.986459,-9609.575562
3740.902710,363.709035,-650.847747,-9131.011042
3740.905298,-2584.248408,-421.136778,-8748.159426
3740.907886,-459.421939,-114.855485,-8748.159426
3740.910475,-669.990328,1263.410333,-9016.155557
3740.913063,95.712904,-344.566454,-9092.725880
3740.915651,-497.707101,1818.545176,-8843.872330
3740.918239,-2124.826469,-1607.976787,-9092.725880
3740.920828,1205.982590,-2526.820666,-9590.432981
3740.923416,593.420005,976.271621,-9073.583299
3740.926004,2124.826469,708.275490,-9265.009107
3740.928592,38.285162,-631.705166,-9131.011042
3740.931181,1014.556782,267.996131,-8595.018779
3740.933769,401.994197,-382.851616,-9054.440718
3740.936357,-593.420005,-2029.113565,-8863.014910
3740.938945,-784.845813,2316.252277,-9131.011042
3740.941534,-1799.402595,325.423874,-9533.005238
3740.944122,-1320.838075,-1856.830338,-9743.573627
3740.946710,1473.978722,535.992262,-8652.446522
3740.949298,401.994197,-899.701298,-9054.440718
3740.951887,-2201.396792,-612.562586,-9131.011042
3740.954475,478.564520,1014.556782,-9437.292334
3740.957063,2660.818731,-267.996131,-9150.153622
3740.959651,1320.838075,-1780.260014,-9513.862658
3740.962240,1684.547110,-382.851616,-9226.723946
3740.964828,-497.707101,1359.123237,-9667.003304
3740.967416,-287.138712,-1205.982590,-9686.145885
3740.970004,-765.703232,153.140646,-8977.870395
3740.972593,267.996131,-516.849682,-9226.723946
3740.975181,-114.855485,-1741.974853,-9054.440718
3740.977769,-1416.550979,2431.107762,-8843.872330
3740.980357,-1435.693560,2316.252277,-9437.292334
3740.982946,-2584.248408,-2029.113565,-9590.432981
3740.985534,-1684.547110,-937.986459,-9303.294269
3740.988122,-2909.672282,-689.132909,-9341.579430
3740.990710,-2373.680019,-229.710970,-9150.153622
3740.993298,-1244.267752,1780.260014,-8805.587168
3740.995887,-1397.408398,1531.406464,-9188.438784
3740.998473,-1607.976787,-2584.248408,-9169.296203
3741.001060,-2431.107762,-287.138712,-9169.296203
3741.003646,-2660.818731,3062.812928,-9188.438784
3741.006233,-19.142581,-650.847747,-9054.440718
3741.008819,842.273555,133.998066,-8977.870395
3741.011406,-3445.664544,-38.285162,-9284.151688
3741.013992,3809.373579,-861.416136,-9226.723946
3741.016579,-5149.354235,-478.564520,-8997.012976
3741.019165,-3866.801322,2488.535504,-8709.874264
3741.021752,-1205.982590,861.416136,-8939.585234
3741.024338,-5264.209720,-478.564520,-9131.011042
3741.026925,-344.566454,1110.269686,-9207.581365
3741.029511,-3043.670347,-1550.549045,-9284.151688
3741.032098,-727.418070,363.709035,-9284.151688
3741.034684,-2794.816797,401.994197,-9379.864592
3741.037271,114.855485,-995.414202,-9724.431046
3741.039857,497.707101,1052.841944,-9016.155557
3741.042444,-363.709035,1033.699363,-8997.012976
3741.045031,-1665.404530,-1780.260014,-9169.296203
3741.047617,-19.142581,-1186.840010,-9379.864592
3741.050204,1186.840010,899.701298,-9513.862658
3741.052790,708.275490,325.423874,-9590.432981
3741.055377,555.134843,-172.283227,-9456.434915
3741.057963,287.138712,-153.140646,-9647.860723
3741.060550,1167.697429,-382.851616,-9111.868461
3741.063136,-650.847747,-1818.545176,-8805.587168
3741.065723,-306.281293,2603.390989,-8997.012976
3741.068309,3120.240670,-995.414202,-8863.014910
3741.070896,1378.265818,-1282.552914,-9035.298138
3741.073482,-2086.541307,918.843878,-9571.290400
3741.076069,-3503.092286,153.140646,-9628.718142
3741.078655,-1167.697429,76.570323,-9073.583299
3741.081242,3809.373579,287.138712,-9150.153622
3741.083828,1780.260014,191.425808,-8958.727814
3741.086415,1550.549045,-2431.107762,-8997.012976
3741.089001,172.283227,2526.820666,-8614.161360
3741.091588,1320.838075,-57.427742,-9245.866526
3741.094174,210.568389,-708.275490,-9284.151688
3741.096761,-401.994197,1339.980656,-9131.011042
3741.099347,-114.855485,-1875.972918,-9245.866526
3741.101932,-957.129040,478.564520,-8767.302006
3741.104518,918.843878,2086.541307,-8480.163294
3741.107103,-1875.972918,1473.978722,-8977.870395
3741.109688,-2201.396792,-2392.822600,-8977.870395
3741.112273,-1148.554848,1205.982590,-8729.016845
3741.114858,-1741.974853,-976.271621,-8920.442653
3741.117443,-2105.683888,421.136778,-8882.157491
3741.120028,-1799.402595,1148.554848,-8901.300072
3741.122613,-1761.117434,325.423874,-9111.868461
3741.125198,-1244.267752,-2297.109696,-8958.727814
3741.127784,-1722.832272,669.990328,-8633.303941
3741.130369,-267.996131,1780.260014,-8671.589102
3741.132954,76.570323,-1378.265818,-8863.014910
3741.135539,-1741.974853,1091.127106,-8805.587168
3741.138124,-3024.527766,1875.972918,-9150.153622
3741.140709,-1550.549045,-1263.410333,-9494.720077
3741.143294,-1627.119368,574.277424,-8863.014910
3741.145879,-2622.533570,746.560651,-9418.149754
3741.148464,-4843.072942,-880.558717,-9092.725880
3741.151050,-2067.398726,1416.550979,-8690.731683
3741.153635,-1244.267752,-1320.838075,-9092.725880
3741.156220,-803.988394,382.851616,-9073.583299
3741.158805,-2029.113565,-1033.699363,-9322.436850
3741.161390,-957.129040,1129.412267,-9322.436850
3741.163975,19.142581,-38.285162,-9647.860723
3741.166560,-2163.111630,1052.841944,-9226.723946
3741.169145,-1301.695494,-1071.984525,-9399.007173
3741.171730,593.420005,-2048.256146,-9456.434915
3741.174316,555.134843,784.845813,-9092.725880
3741.176901,1167.697429,1129.412267,-9379.864592
3741.179486,1148.554848,-38.285162,-9647.860723
3741.182071,-210.568389,-1397.408398,-9399.007173
3741.184656,-133.998066,382.851616,-9571.290400
3741.187241,-574.277424,-1378.265818,-9628.718142
3741.189826,-1933.400661,401.994197,-9533.005238
3741.192411,-2316.252277,1703.689691,-9494.720077
3741.194996,2469.392923,-1875.972918,-9628.718142
3741.197582,1148.554848,-899.701298,-8863.014910
3741.200167,-421.136778,1186.840010,-8786.444587
3741.202752,2526.820666,-823.130974,-9781.858789
3741.205310,-133.998066,210.568389,-9494.720077
3741.207869,1914.258080,0.000000,-9762.716208
3741.210427,803.988394,-918.843878,-9437.292334
3741.212986,727.418070,-861.416136,-9360.722011
3741.215544,344.566454,1799.402595,-9571.290400
3741.218103,76.570323,114.855485,-9341.579430
3741.220661,-210.568389,-1454.836141,-9131.011042
3741.223220,-803.988394,823.130974,-8997.012976
3741.225779,-267.996131,-937.986459,-9054.440718
3741.228337,-708.275490,2507.678085,-8977.870395
3741.230896,-1186.840010,765.703232,-9494.720077
3741.233454,-2411.965181,-1205.982590,-9399.007173
3741.236013,-1990.828403,-1531.406464,-8805.587168
3741.238571,-937.986459,937.986459,-8441.878133
3741.241130,-1837.687757,1914.258080,-8939.585234
3741.243688,-1665.404530,-478.564520,-8939.585234
3741.246247,-880.558717,1837.687757,-8575.876198
3741.248805,-1512.263883,-1722.832272,-9265.009107
3741.251364,-612.562586,-440.279358,-8882.157491
3741.253922,-210.568389,1282.552914,-9399.007173
3741.256481,-2641.676150,-153.140646,-8863.014910
3741.259039,-4479.363907,401.994197,-9035.298138
3741.261598,2488.535504,133.998066,-8537.591037
3741.264156,-440.279358,-1071.984525,-8843.872330
3741.266715,-3062.812928,784.845813,-8843.872330
3741.269273,-3809.373579,2641.676150,-8671.589102
3741.271832,-2507.678085,76.570323,-9131.011042
3741.274390,-1722.832272,-1799.402595,-9169.296203
3741.276949,-2086.541307,1148.554848,-8690.731683
3741.279508,-727.418070,-899.701298,-9169.296203
3741.282066,-1052.841944,344.566454,-8977.870395
3741.284625,229.710970,1033.699363,-8767.302006
3741.287183,440.279358,2143.969050,-8729.016845
3741.289742,497.707101,-2660.818731,-8863.014910
3741.292300,-535.992262,880.558717,-8709.874264
3741.294859,-363.709035,-1014.556782,-9647.860723
3741.297417,1263.410333,401.994197,-9379.864592
3741.299976,382.851616,1205.982590,-8824.729749
3741.302534,823.130974,497.707101,-9188.438784
3741.305093,631.705166,-2450.250342,-9092.725880
3741.307654,459.421939,287.138712,-8480.163294
3741.310215,-880.558717,1052.841944,-9265.009107
3741.312776,-1741.974853,-516.849682,-8939.585234
3741.315337,-5742.774240,1722.832272,-9456.434915
3741.317898,9437.292334,-2431.107762,-9207.581365
3741.320459,-3732.803256,-382.851616,-8920.442653
3741.323020,-5130.211654,765.703232,-9877.571693
3741.325582,6010.770371,0.000000,-8843.872330
3741.328143,287.138712,-2718.246474,-9858.429112
3741.330704,3254.238736,478.564520,-9035.298138
3741.333265,-2469.392923,2469.392923,-8939.585234
3741.335826,516.849682,-2143.969050,-9839.286531
3741.338387,1186.840010,1378.265818,-9188.438784
3741.340948,-114.855485,-784.845813,-9877.571693
3741.343509,-842.273555,-1703.689691,-9245.866526
3741.346070,-1052.841944,823.130974,-8556.733618
3741.348632,1148.554848,1282.552914,-8901.300072
3741.351193,-2431.107762,-38.285162,-9054.440718
3741.353754,-2373.680019,-2009.970984,-9418.149754
3741.356315,-2239.681954,1378.265818,-9341.579430
3741.358876,-2124.826469,-2220.539373,-9322.436850
3741.361437,-1703.689691,1320.838075,-9016.155557
3741.363998,-1607.976787,1435.693560,-9571.290400
3741.366559,-1990.828403,-995.414202,-9590.432981
3741.369120,-1091.127106,-363.709035,-8671.589102
3741.371682,-2545.963246,421.136778,-9035.298138
3741.374243,-4058.227130,1378.265818,-8977.870395
3741.376804,1320.838075,-995.414202,-9437.292334
3741.379365,823.130974,421.136778,-9226.723946
3741.381926,-3388.236802,-210.568389,-9360.722011
3741.384487,-4421.936165,95.712904,-8958.727814
3741.387048,-1646.261949,1167.697429,-9379.864592
3741.389609,-3292.523898,-1799.402595,-9379.864592
3741.392170,-2699.103893,-421.136778,-8977.870395
3741.394731,-2431.107762,1033.699363,-8537.591037
3741.397293,-2392.822600,-210.568389,-9150.153622
3741.399854,-593.420005,-1167.697429,-9207.581365
3741.402415,-76.570323,1110.269686,-9226.723946
3741.404976,-229.710970,229.710970,-9456.434915
3741.407537,-1550.549045,1301.695494,-9073.583299
3741.410100,784.845813,-612.562586,-9131.011042
3741.412664,803.988394,-1569.691626,-9379.864592
3741.415227,267.996131,-459.421939,-9303.294269
3741.417791,1014.556782,2048.256146,-8958.727814
3741.420354,1129.412267,248.853550,-9111.868461
3741.422917,574.277424,-172.283227,-9092.725880
3741.425481,172.283227,-401.994197,-9226.723946
3741.428044,689.132909,-918.843878,-9245.866526
3741.430608,-1799.402595,-765.703232,-9399.007173
3741.433171,-2986.242605,1990.828403,-8690.731683
3741.435734,2526.820666,-421.136778,-9111.868461
3741.438298,1531.406464,-976.271621,-8824.729749
3741.440861,-2450.250342,1607.976787,-8518.448456
3741.443425,3732.803256,-19.142581,-9284.151688
3741.445988,344.566454,57.427742,-9379.864592
3741.448551,1818.545176,401.994197,-9667.003304
3741.451115,1454.836141,995.414202,-8709.874264
3741.453678,421.136778,-2086.541307,-9092.725880
3741.456242,1339.980656,2048.256146,-8805.587168
3741.458805,95.712904,-803.988394,-9226.723946
3741.461368,-650.847747,-1761.117434,-9169.296203
3741.463932,-497.707101,1588.834206,-8575.876198
3741.466495,-1320.838075,-842.273555,-9054.440718
3741.469059,-1607.976787,1837.687757,-8863.014910
3741.471622,-1378.265818,38.285162,-9073.583299
3741.474185,-1818.545176,-1225.125171,-9245.866526
3741.476749,-2220.539373,-2009.970984,-8882.157491
3741.479312,-1301.695494,1014.556782,-8556.733618
3741.481876,-1282.552914,1914.258080,-8901.300072
3741.484439,-1875.972918,-1052.841944,-9016.155557
3741.487003,-1339.980656,746.560651,-8365.307810
3741.489566,-2009.970984,-344.566454,-9303.294269
3741.492132,-4000.799387,-401.994197,-9877.571693
3741.494697,-3885.943902,1493.121302,-9073.583299
3741.497263,3139.383251,153.140646,-8824.729749
3741.499828,2392.822600,-2775.674216,-8863.014910
3741.502394,-3273.381317,1071.984525,-8212.167163
3741.504960,-3732.803256,478.564520,-8958.727814
3741.507525,-2450.250342,-287.138712,-8767.302006
3741.510091,-3158.525832,19.142581,-9188.438784
3741.512657,-1493.121302,593.420005,-9169.296203
3741.515222,-3043.670347,-1301.695494,-9360.722011
3741.517788,-1205.982590,0.000000,-9131.011042
3741.520354,-669.990328,-153.140646,-9245.866526
3741.522919,153.140646,-1052.841944,-9533.005238
3741.525485,-133.998066,2545.963246,-8461.020714
3741.528050,1282.552914,-1167.697429,-9016.155557
3741.530616,-57.427742,-842.273555,-9494.720077
3741.533182,-440.279358,-631.705166,-9628.718142
3741.535747,727.418070,1282.552914,-9475.577496
3741.538313,325.423874,-57.427742,-9475.577496
3741.540879,918.843878,421.136778,-9169.296203
3741.543444,-133.998066,-1071.984525,-9628.718142
3741.546010,-114.855485,-1301.695494,-9801.001370
3741.548576,-708.275490,861.416136,-8767.302006
3741.551141,1416.550979,95.712904,-9303.294269
3741.553707,-5168.496816,1531.406464,-9494.720077
3741.556272,-459.421939,-842.273555,-9341.579430
3741.558838,5627.918755,-421.136778,-9207.581365
3741.561404,-4249.652938,478.564520,-9494.720077
3741.563969,823.130974,-976.271621,-9705.288466
3741.566535,1320.838075,1071.984525,-9360.722011
3741.569101,2373.680019,-2029.113565,-9399.007173
3741.571666,2833.101958,229.710970,-8748.159426
3741.574232,-1071.984525,478.564520,-9188.438784
3741.576798,95.712904,-210.568389,-9686.145885
3741.579363,-669.990328,-1761.117434,-9188.438784
3741.581929,669.990328,593.420005,-9303.294269
3741.584494,-3177.668413,191.425808,-9341.579430
3741.587060,-1703.689691,1110.269686,-9169.296203
3741.589626,-1416.550979,1703.689691,-8843.872330
3741.592191,-880.558717,-1837.687757,-9016.155557
3741.594758,-2163.111630,-1627.119368,-8863.014910
3741.597325,-1895.115499,2258.824534,-8652.446522
3741.599892,-1014.556782,1129.412267,-9073.583299
3741.602458,-2239.681954,95.712904,-9188.438784
3741.605025,-1378.265818,-248.853550,-9035.298138
3741.607592,-3445.664544,344.566454,-9399.007173
3741.610159,-2679.961312,-555.134843,-8690.731683
3741.612725,3139.383251,1588.834206,-8748.159426
3741.615292,-440.279358,-478.564520,-9035.298138
3741.617859,-2622.533570,-1129.412267,-8863.014910
3741.620426,-3464.807125,2392.822600,-8633.303941
3741.622993,-1761.117434,-459.421939,-9265.009107
3741.625559,-3330.809059,153.140646,-8882.157491
3741.628126,-3254.238736,325.423874,-8614.161360
3741.630693,-1665.404530,-38.285162,-8786.444587
3741.633260,-3043.670347,-861.416136,-8997.012976
3741.635826,-306.281293,229.710970,-8767.302006
3741.638393,746.560651,229.710970,-8824.729749
3741.640960,497.707101,746.560651,-9054.440718
3741.643527,-1990.828403,1895.115499,-8614.161360
3741.646093,-1914.258080,-918.843878,-9399.007173
3741.648660,708.275490,-2124.826469,-9609.575562
3741.651227,191.425808,727.418070,-9111.868461
3741.653794,1263.410333,861.416136,-9207.581365
3741.656361,669.990328,-1071.984525,-9150.153622
3741.658927,708.275490,918.843878,-8824.729749
3741.661494,842.273555,-1148.554848,-8997.012976
3741.664061,95.712904,-2182.254211,-8805.587168
3741.666628,114.855485,459.421939,-9092.725880
3741.669194,2679.961312,-861.416136,-9418.149754
3741.671761,-3062.812928,-650.847747,-9418.149754
3741.674328,803.988394,-880.558717,-9150.153622
3741.676895,1684.547110,-287.138712,-8843.872330
3741.679461,-1646.261949,-2163.111630,-9896.714274
3741.682028,2239.681954,1186.840010,-9035.298138
3741.684595,2105.683888,1780.260014,-9322.436850
3741.687162,3235.096155,-2699.103893,-9628.718142
3741.689728,-535.992262,976.271621,-9265.009107
3741.692295,114.855485,-497.707101,-10030.712339
3741.694862,-650.847747,-861.416136,-9513.862658
3741.697430,-574.277424,-708.275490,-9150.153622
3741.699998,-2335.394858,325.423874,-9131.011042
3741.702566,-1684.547110,344.566454,-9169.296203
3741.705134,-1359.123237,-1282.552914,-9360.722011
3741.707702,-1895.115499,842.273555,-9207.581365
3741.710270,-1454.836141,-2143.969050,-9303.294269
3741.712838,-2392.822600,612.562586,-8977.870395
3741.715406,-1378.265818,1895.115499,-9322.436850
3741.717973,-2488.535504,-746.560651,-9762.716208
3741.720541,-2488.535504,-478.564520,-9245.866526
3741.723109,-1148.554848,57.427742,-9341.579430
3741.725677,440.279358,-1339.980656,-9265.009107
3741.728245,-6297.909083,172.283227,-9322.436850
3741.730813,-2029.113565,2526.820666,-9647.860723
3741.733381,2699.103893,-1205.982590,-9073.583299
3741.735949,-1569.691626,-593.420005,-9131.011042
3741.738517,-4383.651003,2105.683888,-9111.868461
3741.741085,-3349.951640,-401.994197,-9475.577496
3741.743653,-3962.514226,516.849682,-8786.444587
3741.746221,-976.271621,861.416136,-8671.589102
3741.748789,-2507.678085,76.570323,-9092.725880
3741.751357,-1473.978722,-459.421939,-9341.579430
3741.753925,-210.568389,1071.984525,-9226.723946
3741.756492,1301.695494,708.275490,-9513.862658
3741.759060,-1914.258080,229.710970,-9111.868461
3741.761628,-1971.685822,153.140646,-9475.577496
3741.764196,1320.838075,-325.423874,-9169.296203
3741.766764,-95.712904,-574.277424,-9284.151688
3741.769332,1646.261949,1646.261949,-8786.444587
3741.771900,899.701298,172.283227,-9111.868461
3741.774468,-153.140646,-76.570323,-9169.296203
3741.777036,1071.984525,-191.425808,-8977.870395
3741.779604,-267.996131,-957.129040,-9667.003304
3741.782172,1052.841944,-1378.265818,-9456.434915
3741.784740,-6967.899411,2507.678085,-8786.444587
3741.787308,5398.207786,-1512.263883,-8882.157491
3741.789876,2756.531635,-459.421939,-8863.014910
3741.792444,-6661.618118,899.701298,-8920.442653
3741.795012,5206.781978,172.283227,-9265.009107
3741.797579,708.275490,-287.138712,-9418.149754
3741.800149,4039.084549,0.000000,-8882.157491
3741.802718,631.705166,2526.820666,-8843.872330
3741.805287,-382.851616,-3809.373579,-9743.573627
3741.807856,1110.269686,3503.092286,-8920.442653
3741.810425,-344.566454,-3158.525832,-9131.011042
3741.812994,478.564520,842.273555,-8652.446522
3741.815563,-2469.392923,2450.250342,-8461.020714
3741.818132,-1588.834206,861.416136,-9169.296203
3741.820701,-2067.398726,-1473.978722,-9494.720077
3741.823271,-1052.841944,-421.136778,-9188.438784
3741.825840,-1837.687757,153.140646,-9016.155557
3741.828409,-2297.109696,-1091.127106,-8843.872330
3741.830978,-421.136778,2526.820666,-8690.731683
3741.833547,-1550.549045,842.273555,-8920.442653
3741.836116,-2488.535504,-3369.094221,-9092.725880
3741.838685,-459.421939,1627.119368,-8173.882002
3741.841254,-1359.123237,1320.838075,-9533.005238
3741.843823,-1780.260014,-1186.840010,-9762.716208
3741.846392,-1071.984525,708.275490,-8709.874264
3741.848962,287.138712,-401.994197,-9169.296203
3741.851531,-2335.394858,-631.705166,-8614.161360
3741.854100,-3694.518094,95.712904,-9016.155557
3741.856669,-3062.812928,1435.693560,-9169.296203
3741.859238,-1971.685822,-1722.832272,-8882.157491
3741.861807,-2813.959378,114.855485,-9073.583299
3741.864376,-995.414202,38.285162,-9475.577496
3741.866945,-38.285162,-1301.695494,-9609.575562
3741.869514,708.275490,2124.826469,-9188.438784
3741.872083,-2086.541307,1148.554848,-9303.294269
3741.874653,153.140646,-1263.410333,-9111.868461
3741.877222,-267.996131,-1186.840010,-8824.729749
3741.879791,287.138712,-95.712904,-9571.290400
3741.882360,1550.549045,248.853550,-9647.860723
3741.884929,-267.996131,191.425808,-9150.153622
3741.887498,248.853550,957.129040,-9571.290400
3741.890067,-57.427742,-2450.250342,-10011.569758
3741.892636,229.710970,-478.564520,-9054.440718
3741.895205,727.418070,-76.570323,-9303.294269
3741.897775,1091.127106,-1454.836141,-9724.431046
3741.900344,-3196.810994,1033.699363,-9016.155557
3741.902913,229.710970,-19.142581,-9226.723946
3741.905482,1416.550979,-574.277424,-9073.583299
3741.908052,-1531.406464,-421.136778,-9590.432981
3741.910621,3043.670347,1435.693560,-9590.432981
3741.913191,631.705166,-1167.697429,-9552.147819
3741.915761,3062.812928,-421.136778,-9111.868461
3741.918330,-612.562586,267.996131,-9245.866526
3741.920900,880.558717,-19.142581,-9456.434915
3741.923469,-937.986459,-1531.406464,-8901.300072
3741.926039,-593.420005,1435.693560,-8652.446522
3741.928609,-689.132909,382.851616,-8882.157491
3741.931178,-2794.816797,1244.267752,-9188.438784
3741.933748,-1493.121302,631.705166,-9667.003304
3741.936317,-2220.539373,-2009.970984,-9475.577496
3741.938887,-1875.972918,-823.130974,-9150.153622
3741.941456,-1493.121302,2507.678085,-8384.450390
3741.944026,-746.560651,899.701298,-8843.872330
3741.946596,-1818.545176,-478.564520,-8748.159426
3741.949165,-2603.390989,899.701298,-9035.298138
3741.951735,-3177.668413,976.271621,-9131.011042
3741.954304,-784.845813,-440.279358,-8805.587168
3741.956874,3579.662610,1550.549045,-9303.294269
3741.959444,1359.123237,-287.138712,-8920.442653
3741.962013,-5857.629725,-1473.978722,-8767.302006
3741.964583,-2660.818731,1933.400661,-8441.878133
3741.967152,-2105.683888,612.562586,-8824.729749
3741.969722,-2124.826469,-440.279358,-8843.872330
3741.972292,-3981.656806,1799.402595,-8652.446522
3741.974861,-2603.390989,-287.138712,-9035.298138
3741.977431,-1435.693560,-861.416136,-9016.155557
3741.980000,593.420005,-210.568389,-9092.725880
3741.982570,1435.693560,1990.828403,-9245.866526
3741.985140,-2009.970984,-1435.693560,-9016.155557
3741.987709,-918.843878,57.427742,-8575.876198
3741.990279,727.418070,-267.996131,-9111.868461
3741.992848,497.707101,-1703.689691,-9265.009107
3741.995418,708.275490,2737.389054,-8939.585234
3741.997988,727.418070,172.283227,-9418.149754
3742.000557,306.281293,-172.283227,-9399.007173
3742.003127,0.000000,-1493.121302,-9111.868461
3742.005697,1741.974853,612.562586,-8939.585234
3742.008267,1186.840010,-2679.961312,-9475.577496
3742.010837,-2641.676150,1837.687757,-8575.876198
3742.013408,-95.712904,-899.701298,-9111.868461
3742.015978,-1301.695494,-421.136778,-9284.151688
3742.018548,-3598.805190,1569.691626,-9609.575562
3742.021119,2947.957443,-1856.830338,-10298.708470
3742.023689,1301.695494,267.996131,-9341.579430
3742.026259,2392.822600,-1282.552914,-9322.436850
3742.028829,-306.281293,1493.121302,-8997.012976
3742.031400,1129.412267,-3579.662610,-9590.432981
3742.033970,708.275490,2335.394858,-8882.157491
3742.036540,-1014.556782,-2009.970984,-9111.868461
3742.039110,-2048.256146,-937.986459,-9399.007173
3742.041681,-2967.100024,2545.963246,-8997.012976
3742.044251,153.140646,57.427742,-9724.431046
3742.046821,-2584.248408,-1837.687757,-9437.292334
3742.049391,-363.709035,-459.421939,-8958.727814
3742.051962,-1895.115499,421.136778,-8863.014910
3742.054532,-1971.685822,-516.849682,-8958.727814
3742.057102,-1684.547110,-306.281293,-9150.153622
3742.059672,-2048.256146,2182.254211,-9571.290400
3742.062243,-1263.410333,-2048.256146,-9265.009107
3742.064813,-5819.344563,746.560651,-9265.009107
3742.067383,1110.269686,1129.412267,-9762.716208
3742.069953,1129.412267,-1703.689691,-9418.149754
3742.072524,-4153.940034,210.568389,-8786.444587
3742.075094,-3062.812928,1339.980656,-9188.438784
3742.077664,-2488.535504,880.558717,-8997.012976
3742.080235,-3885.943902,0.000000,-9303.294269
3742.082805,-1761.117434,1091.127106,-8958.727814
3742.085375,-3426.521963,-401.994197,-8901.300072
3742.087945,-1435.693560,-1225.125171,-9494.720077
3742.090516,-114.855485,555.134843,-9571.290400
3742.093086,765.703232,-344.566454,-9801.001370
3742.095656,-2220.539373,57.427742,-9073.583299
3742.098226,-229.710970,899.701298,-8537.591037
3742.100797,861.416136,-1473.978722,-9169.296203
3742.103367,-421.136778,-382.851616,-9399.007173
3742.105937,957.129040,1550.549045,-9399.007173
3742.108507,0.000000,-191.425808,-9533.005238
3742.111078,574.277424,-401.994197,-9207.581365
3742.113648,784.845813,-401.994197,-9379.864592
3742.116218,-497.707101,344.566454,-9245.866526
3742.118788,-2450.250342,-95.712904,-9073.583299
3742.121359,-593.420005,2182.254211,-8843.872330
3742.123929,1320.838075,-440.279358,-9226.723946
3742.126499,1148.554848,-1416.550979,-8901.300072
3742.129069,19.142581,1263.410333,-9284.151688
3742.131640,-363.709035,-880.558717,-9973.284597
3742.134210,2067.398726,-95.712904,-9513.862658
3742.136780,2622.533570,612.562586,-8614.161360
3742.139350,1761.117434,-153.140646,-8690.731683
3742.141921,574.277424,-842.273555,-9016.155557
3742.144491,899.701298,784.845813,-8863.014910
3742.147061,-497.707101,-325.423874,-9188.438784
3742.149631,-1952.543242,-267.996131,-8633.303941
3742.152201,-2048.256146,2986.242605,-8614.161360
3742.154772,-631.705166,574.277424,-9399.007173
3742.157342,-1435.693560,-3024.527766,-9226.723946
3742.159912,-248.853550,823.130974,-8346.165229
3742.162482,-1684.547110,-191.425808,-8729.016845
3742.165053,-2258.824534,306.281293,-8690.731683
3742.167623,-612.562586,1875.972918,-8805.587168
3742.170193,-1110.269686,-191.425808,-8901.300072
3742.172763,-3522.234867,-1397.408398,-9035.298138
3742.175334,-3349.951640,2067.398726,-8690.731683
3742.177904,3101.098090,306.281293,-9360.722011
3742.180474,-3809.373579,38.285162,-8977.870395
3742.183044,-708.275490,746.560651,-8652.446522
3742.185615,-363.709035,650.847747,-8384.450390
3742.188185,-4115.654872,-1359.123237,-9092.725880
3742.190755,-2507.678085,1722.832272,-8556.733618
3742.193325,-4555.934230,1588.834206,-9303.294269
3742.195896,-2756.531635,-2488.535504,-9609.575562
3742.198466,-1933.400661,1033.699363,-8843.872330
3742.201036,727.418070,-1129.412267,-9628.718142
3742.203606,803.988394,669.990328,-9322.436850
3742.206177,-937.986459,899.701298,-8767.302006
3742.208747,-1071.984525,-114.855485,-9150.153622
3742.211317,-555.134843,-1971.685822,-9207.581365
3742.213888,516.849682,-191.425808,-9647.860723
3742.216458,287.138712,1244.267752,-9494.720077
3742.219028,976.271621,-1397.408398,-9571.290400
3742.221599,-612.562586,516.849682,-9284.151688
3742.224169,669.990328,-1569.691626,-9399.007173
3742.226739,-1129.412267,-191.425808,-9628.718142
3742.229310,-2737.389054,1416.550979,-8958.727814
3742.231880,4268.795518,689.132909,-9418.149754
3742.234450,3790.230998,-1531.406464,-9245.866526
3742.237021,-1033.699363,-1033.699363,-8901.300072
3742.239591,-1914.258080,746.560651,-9877.571693
3742.242161,2048.256146,-133.998066,-9781.858789
3742.244732,2163.111630,-1033.699363,-9437.292334
3742.247302,2239.681954,746.560651,-9341.579430
3742.249873,-401.994197,-1914.258080,-9418.149754
3742.252443,421.136778,-325.423874,-9456.434915
3742.255013,-842.273555,-210.568389,-9169.296203
3742.257584,-95.712904,-191.425808,-9207.581365
3742.260154,-2201.396792,1837.687757,-8786.444587
3742.262724,-2507.678085,2009.970984,-9437.292334
3742.265295,-2048.256146,-1627.119368,-9705.288466
3742.267865,-1339.980656,-823.130974,-9322.436850
3742.270435,-1799.402595,0.000000,-9322.436850
3742.273006,-2086.541307,708.275490,-8709.874264
3742.275576,-708.275490,497.707101,-8977.870395
3742.278146,-1856.830338,2258.824534,-9054.440718
3742.280717,-2565.105827,-1684.547110,-9437.292334
3742.283287,-5321.637462,-114.855485,-9475.577496
3742.285858,-899.701298,2124.826469,-9609.575562
3742.288428,1473.978722,-114.855485,-9322.436850
3742.290998,-4747.360038,612.562586,-9092.725880
3742.293569,95.712904,421.136778,-8384.450390
3742.296139,-2737.389054,1741.974853,-8901.300072
3742.298709,-3905.086483,-2297.109696,-9379.864592
3742.301280,-2124.826469,3483.949706,-8346.165229
3742.303850,-3522.234867,-784.845813,-9016.155557
3742.306420,-727.418070,-344.566454,-8882.157491
3742.308991,-1205.982590,631.705166,-9418.149754
3742.311561,2048.256146,-19.142581,-9590.432981
3742.314132,-1799.402595,1320.838075,-8805.587168
3742.316702,880.558717,-1186.840010,-8461.020714
3742.319273,95.712904,555.134843,-8958.727814
3742.321843,-287.138712,-2048.256146,-9341.579430
3742.324413,1071.984525,2660.818731,-8863.014910
3742.326984,401.994197,248.853550,-9265.009107
3742.329554,861.416136,-401.994197,-9188.438784
3742.332125,-57.427742,-344.566454,-8729.016845
3742.334695,2411.965181,172.283227,-8786.444587
3742.337266,1205.982590,-1971.685822,-9111.868461
3742.339836,-2909.672282,1741.974853,-8154.739421
3742.342407,-823.130974,-57.427742,-8977.870395
3742.344977,2335.394858,-1722.832272,-9016.155557
3742.347548,-287.138712,325.423874,-9092.725880
3742.350118,2277.967115,746.560651,-9169.296203
3742.352689,2009.970984,-842.273555,-9743.573627
3742.355259,-76.570323,76.570323,-9035.298138
3742.357829,3196.810994,38.285162,-9379.864592
3742.360400,-1091.127106,-2392.822600,-9322.436850
3742.362970,516.849682,593.420005,-8958.727814
3742.365541,-918.843878,-344.566454,-8863.014910
3742.368111,-1282.552914,363.709035,-8633.303941
3742.370682,-2794.816797,803.988394,-9188.438784
3742.373252,-2526.820666,-248.853550,-9724.431046
3742.375823,-1454.836141,-1473.978722,-9628.718142
3742.378393,-1607.976787,-229.710970,-8958.727814
3742.380964,-1856.830338,823.130974,-8939.585234
3742.383534,-1473.978722,-574.277424,-8977.870395
3742.386105,-1225.125171,995.414202,-8422.735552
3742.388675,-2354.537438,440.279358,-9111.868461
3742.391245,-3771.088418,-593.420005,-9322.436850
3742.393816,1914.258080,153.140646,-9399.007173
3742.396386,593.420005,325.423874,-9131.011042
3742.398957,-861.416136,-1052.841944,-8882.157491
3742.401527,-4900.500685,19.142581,-8958.727814
3742.404098,-2201.396792,1627.119368,-8977.870395
3742.406668,-2852.244539,-650.847747,-9169.296203
3742.409239,-2794.816797,-363.709035,-8958.727814
3742.411809,-3062.812928,1378.265818,-8977.870395
3742.414380,-1895.115499,-669.990328,-9571.290400
3742.416950,-248.853550,-669.990328,-9533.005238
3742.419520,2086.541307,3043.670347,-9667.003304
3742.422090,-1110.269686,-1473.978722,-9647.860723
3742.424660,-2048.256146,76.570323,-9303.294269
3742.427230,229.710970,-535.992262,-9552.147819
3742.429800,172.283227,-516.849682,-9475.577496
3742.432370,1186.840010,899.701298,-9169.296203
3742.434940,191.425808,1091.127106,-9092.725880
3742.437510,459.421939,38.285162,-9399.007173
3742.440080,-191.425808,-2335.394858,-9341.579430
3742.442651,2411.965181,1569.691626,-8977.870395
3742.445221,-593.420005,-2067.398726,-9667.003304
3742.447791,-4651.647134,1148.554848,-8709.874264
3742.450361,1569.691626,38.285162,-8997.012976
3742.452931,1493.121302,-574.277424,-9169.296203
3742.455501,-535.992262,-803.988394,-9360.722011
3742.458071,2297.109696,1339.980656,-9188.438784
3742.460641,1263.410333,95.712904,-9533.005238
3742.463211,2871.387120,-1148.554848,-9284.151688
3742.465781,-401.994197,1014.556782,-9265.009107
3742.468351,1129.412267,-1129.412267,-9284.151688
3742.470922,-1741.974853,57.427742,-8824.729749
3742.473492,-2220.539373,1397.408398,-8595.018779
3742.476062,-2526.820666,2009.970984,-8690.731683
3742.478632,-1971.685822,-708.275490,-9188.438784
3742.481202,-727.418070,421.136778,-8824.729749
3742.483772,-1110.269686,-880.558717,-9016.155557
3742.486342,-1435.693560,-784.845813,-8939.585234
3742.488912,-1837.687757,2584.248408,-8575.876198
3742.491482,-1205.982590,535.992262,-9054.440718
3742.494052,-2890.529701,-2163.111630,-9188.438784
3742.496622,-2756.531635,1722.832272,-8575.876198
3742.499193,-3828.516160,1091.127106,-9245.866526
3742.501763,2699.103893,-1741.974853,-8939.585234
3742.504333,1933.400661,1205.982590,-8480.163294
3742.506903,-3598.805190,114.855485,-9054.440718
3742.509473,-3981.656806,-306.281293,-8920.442653
3742.512043,-3790.230998,1454.836141,-8901.300072
3742.514613,-1990.828403,-248.853550,-9245.866526
3742.517183,-2163.111630,-344.566454,-8614.161360
3742.519753,-2775.674216,-38.285162,-8518.448456
3742.522323,574.277424,497.707101,-9016.155557
3742.524894,1014.556782,-325.423874,-9226.723946
3742.527464,-593.420005,421.136778,-9418.149754
3742.530034,-823.130974,478.564520,-9322.436850
3742.532604,-95.712904,-2584.248408,-9552.147819
3742.535174,76.570323,899.701298,-9111.868461
3742.537744,746.560651,210.568389,-9360.722011
3742.540314,229.710970,-555.134843,-9360.722011
3742.542885,861.416136,440.279358,-8671.589102
3742.545455,1607.976787,-1263.410333,-9801.001370
3742.548025,-823.130974,-746.560651,-9705.288466
3742.550595,-4689.932296,1205.982590,-9341.579430
3742.553165,2890.529701,459.421939,-9322.436850
3742.555735,-1205.982590,-1282.552914,-9073.583299
3742.558305,3101.098090,-133.998066,-8901.300072
3742.560876,248.853550,689.132909,-9016.155557
3742.563446,2105.683888,-2373.680019,-9494.720077
3742.566016,2852.244539,95.712904,-9360.722011
3742.568586,38.285162,650.847747,-9284.151688
3742.571156,2201.396792,-2048.256146,-9667.003304
3742.573726,-1014.556782,191.425808,-9265.009107
3742.576296,95.712904,-650.847747,-9571.290400
3742.578867,-3196.810994,421.136778,-9054.440718
3742.581437,-1550.549045,1397.408398,-9016.155557
3742.584007,-2469.392923,995.414202,-9226.723946
3742.586577,-1378.265818,-2258.824534,-9169.296203
3742.589147,-1091.127106,-401.994197,-8977.870395
3742.591717,-1473.978722,1225.125171,-9111.868461
3742.594287,-2277.967115,516.849682,-9207.581365
3742.596858,-1665.404530,172.283227,-8997.012976
3742.599428,-1990.828403,1875.972918,-9226.723946
3742.601998,-3120.240670,-1665.404530,-9303.294269
3742.604568,4517.649069,-2986.242605,-9073.583299
3742.607138,2565.105827,2086.541307,-8786.444587
3742.609708,-10202.995566,1627.119368,-9265.009107
3742.612278,2182.254211,-976.271621,-8250.452325
3742.614849,-2584.248408,1607.976787,-8748.159426
3742.617419,-3024.527766,-842.273555,-9647.860723
3742.619989,-5436.492947,1837.687757,-8958.727814
3742.622538,-2431.107762,287.138712,-9456.434915
3742.625086,957.129040,516.849682,-8729.016845
3742.627635,-1071.984525,-1971.685822,-9169.296203
3742.630184,2909.672282,2813.959378,-9188.438784
3742.632733,-1588.834206,727.418070,-8805.587168
3742.635282,669.990328,-1837.687757,-9226.723946
3742.637830,-497.707101,1091.127106,-8920.442653
3742.640379,1129.412267,-1167.697429,-9533.005238
3742.642928,-727.418070,-401.994197,-9207.581365
3742.645477,574.277424,1359.123237,-8748.159426
3742.648026,918.843878,440.279358,-9322.436850
3742.650574,-306.281293,-1320.838075,-9207.581365
3742.653123,-287.138712,1550.549045,-8843.872330
3742.655672,497.707101,-210.568389,-8786.444587
3742.658221,-191.425808,-516.849682,-8882.157491
3742.660770,-1148.554848,2067.398726,-9284.151688
3742.663318,-153.140646,0.000000,-9647.860723
3742.665867,229.710970,-1052.841944,-9628.718142
3742.668416,2373.680019,287.138712,-8901.300072
3742.670965,2105.683888,172.283227,-9513.862658
3742.673514,727.418070,-1952.543242,-9456.434915
3742.676062,421.136778,880.558717,-8690.731683
3742.678611,363.709035,-401.994197,-8977.870395
3742.681160,-880.558717,-1186.840010,-8863.014910
3742.683709,-708.275490,2163.111630,-8786.444587
3742.686258,-4058.227130,478.564520,-9379.864592
3742.688806,-2201.396792,-1282.552914,-9437.292334
3742.691355,-1416.550979,-459.421939,-8709.874264
3742.693904,-631.705166,382.851616,-9054.440718
3742.696453,-2297.109696,-880.558717,-8882.157491
3742.699002,-861.416136,2201.396792,-8748.159426
3742.701550,-1301.695494,1014.556782,-8690.731683
3742.704099,-2871.387120,-1895.115499,-9609.575562
3742.706648,-5168.496816,631.705166,-9207.581365
3742.709197,2105.683888,1129.412267,-9686.145885
3742.711746,-746.560651,-497.707101,-8863.014910
3742.714294,-784.845813,-133.998066,-8748.159426
3742.716843,-1588.834206,1091.127106,-8480.163294
3742.719392,-4670.789715,-1320.838075,-9226.723946
3742.721941,-2699.103893,57.427742,-9188.438784
3742.724493,-3981.656806,2201.396792,-8920.442653
3742.727044,-1205.982590,-2679.961312,-9399.007173
3742.729596,-1550.549045,1550.549045,-8997.012976
3742.732148,497.707101,-153.140646,-9858.429112
3742.734700,-210.568389,976.271621,-9475.577496
3742.737251,2526.820666,-1531.406464,-8901.300072
3742.739803,-306.281293,784.845813,-9111.868461
3742.742355,-133.998066,-957.129040,-9494.720077
3742.744907,229.710970,229.710970,-9379.864592
3742.747459,-95.712904,1550.549045,-9571.290400
3742.750010,1282.552914,-976.271621,-9762.716208
3742.752562,-229.710970,-114.855485,-9628.718142
3742.755114,210.568389,-516.849682,-9820.143950
3742.757666,-2565.105827,19.142581,-9839.286531
3742.760217,-3349.951640,-306.281293,-9475.577496
3742.762769,3254.238736,555.134843,-8786.444587
3742.765321,555.134843,-727.418070,-9265.009107
3742.767873,-937.986459,-1244.267752,-9571.290400
3742.770424,2009.970984,2163.111630,-9360.722011
3742.772976,746.560651,-1493.121302,-9801.001370
3742.775528,3215.953574,19.142581,-9456.434915
3742.778080,-1569.691626,-708.275490,-9590.432981
3742.780632,823.130974,-937.986459,-9111.868461
3742.783183,-1454.836141,-19.142581,-8729.016845
3742.785735,-2354.537438,2124.826469,-8863.014910
3742.788287,-2909.672282,1091.127106,-8901.300072
3742.790839,-2354.537438,-497.707101,-9265.009107
3742.793390,-1244.267752,210.568389,-8997.012976
3742.795942,-1148.554848,-784.845813,-8977.870395
3742.798494,-1339.980656,-306.281293,-9169.296203
3742.801046,-1148.554848,2450.250342,-8518.448456
3742.803598,-669.990328,248.853550,-8556.733618
3742.806152,-2775.674216,-1378.265818,-8652.446522
3742.808707,2431.107762,727.418070,-8652.446522
3742.811261,363.709035,574.277424,-8901.300072
3742.813816,-6317.051664,38.285162,-9360.722011
3742.816370,-1588.834206,1799.402595,-9150.153622
3742.818925,0.000000,421.136778,-8863.014910
3742.821479,-2641.676150,-1665.404530,-8958.727814
3742.824034,-1875.972918,1856.830338,-8537.591037
3742.826588,-4479.363907,918.843878,-8939.585234
3742.829143,-1761.117434,-1837.687757,-8882.157491
3742.831697,-344.566454,1359.123237,-8480.163294
3742.834252,957.129040,287.138712,-9456.434915
3742.836806,-363.709035,1071.984525,-9207.581365
3742.839361,727.418070,267.996131,-8805.587168
3742.841915,478.564520,-976.271621,-9303.294269
3742.844470,-287.138712,-1856.830338,-9399.007173
3742.847024,1091.127106,1091.127106,-8939.585234
3742.849579,210.568389,631.705166,-9226.723946
3742.852133,803.988394,-1378.265818,-9418.149754
3742.854688,727.418070,976.271621,-8614.161360
3742.857242,-191.425808,-937.986459,-9399.007173
3742.859797,-5206.781978,287.138712,-9628.718142
3742.862351,19.142581,-210.568389,-9418.149754
3742.864906,-2603.390989,1531.406464,-9150.153622
3742.867460,535.992262,-2220.539373,-9858.429112
3742.870015,2890.529701,1359.123237,-8767.302006
3742.872569,516.849682,19.142581,-9494.720077
3742.875124,2852.244539,-1148.554848,-9169.296203
3742.877679,-631.705166,-287.138712,-9418.149754
3742.880233,1914.258080,229.710970,-9858.429112
3742.882788,-1703.689691,-1550.549045,-9475.577496
3742.885342,-689.132909,-306.281293,-9150.153622
3742.887897,-2258.824534,2852.244539,-8882.157491
3742.890451,-3043.670347,-1186.840010,-9552.147819
3742.893006,-3062.812928,995.414202,-9016.155557
3742.895560,-976.271621,-1416.550979,-9207.581365
3742.898115,-1435.693560,-1722.832272,-9360.722011
3742.900669,-1799.402595,1282.552914,-9092.725880
3742.903224,-1110.269686,1129.412267,-9724.431046
3742.905778,-2124.826469,-210.568389,-9073.583299
3742.908314,-1780.260014,-1837.687757,-9226.723946
3742.910850,95.712904,401.994197,-9915.856854
3742.913386,-6259.623922,899.701298,-9705.288466
3742.915922,-8116.454259,708.275490,-9341.579430
3742.918459,3560.520029,1014.556782,-8059.026517
3742.920995,-3656.232933,-497.707101,-8843.872330
3742.923531,-3675.375514,-344.566454,-9379.864592
3742.926067,-5359.922624,2220.539373,-9016.155557
3742.928604,-2067.398726,-1627.119368,-9513.862658
3742.931140,-2086.541307,1110.269686,-8805.587168
3742.933676,-1301.695494,-1148.554848,-9762.716208
3742.936212,3637.090352,1531.406464,-9169.296203
3742.938749,-344.566454,-765.703232,-8939.585234
3742.941285,-76.570323,421.136778,-9054.440718
3742.943821,-210.568389,-325.423874,-9303.294269
3742.946357,210.568389,-1052.841944,-9590.432981
3742.948893,133.998066,2316.252277,-9475.577496
3742.951430,-76.570323,-1320.838075,-9628.718142
3742.953966,267.996131,-210.568389,-9399.007173
3742.956502,1990.828403,746.560651,-8575.876198
3742.959038,1875.972918,-823.130974,-9322.436850
3742.961575,-4881.358104,-421.136778,-8977.870395
3742.964111,133.998066,1665.404530,-8671.589102
3742.966647,1416.550979,-191.425808,-9437.292334
3742.969183,1799.402595,-1703.689691,-9092.725880
3742.971720,593.420005,1205.982590,-9322.436850
3742.974256,1569.691626,76.570323,-9054.440718
3742.976792,1550.549045,-1129.412267,-9169.296203
3742.979328,1186.840010,555.134843,-9035.298138
3742.981865,1397.408398,-555.134843,-8843.872330
3742.984401,-1722.832272,-344.566454,-8939.585234
3742.986937,-3196.810994,2507.678085,-8863.014910
3742.989473,-2565.105827,1722.832272,-8920.442653
3742.992009,-1684.547110,-1129.412267,-9265.009107
3742.994546,-1512.263883,-153.140646,-8786.444587
3742.997082,-1129.412267,-210.568389,-8958.727814
3742.999618,-1186.840010,-1014.556782,-8882.157491
3743.002154,-1110.269686,2545.963246,-8518.448456
3743.004691,-1722.832272,1301.695494,-9150.153622
3743.007227,-4421.936165,-1780.260014,-9341.579430
3743.009768,-3445.664544,2029.113565,-8652.446522
3743.012309,746.560651,976.271621,-9609.575562
3743.014850,-1646.261949,-287.138712,-9169.296203
3743.017391,-2048.256146,267.996131,-8518.448456
3743.019932,-1320.838075,631.705166,-8461.020714
3743.022473,-4307.080680,-478.564520,-9169.296203
3743.025015,-2660.818731,593.420005,-8614.161360
3743.027556,-3503.092286,1665.404530,-8614.161360
3743.030097,-1837.687757,-1875.972918,-8920.442653
3743.032638,-1167.697429,-76.570323,-9341.579430
3743.035179,2239.681954,1320.838075,-9781.858789
3743.037720,-574.277424,-1722.832272,-9437.292334
3743.040261,-325.423874,574.277424,-8977.870395
3743.042802,191.425808,-555.134843,-9379.864592
3743.045343,363.709035,-1339.980656,-9226.723946
3743.047884,497.707101,1512.263883,-8920.442653
3743.050426,-153.140646,440.279358,-9494.720077
3743.052967,114.855485,-1646.261949,-9571.290400
3743.055508,-535.992262,-823.130974,-9628.718142
3743.058049,-1512.263883,1282.552914,-9284.151688
3743.060590,-19.142581,-478.564520,-9341.579430
3743.063131,172.283227,-210.568389,-9035.298138
3743.065672,-3809.373579,1588.834206,-9475.577496
3743.068213,3560.520029,-1607.976787,-9341.579430
3743.070754,1933.400661,-153.140646,-9265.009107
3743.073295,1837.687757,421.136778,-9475.577496
3743.075836,1665.404530,-1493.121302,-9590.432981
3743.078378,-555.134843,-976.271621,-9399.007173
3743.080919,1148.554848,153.140646,-9609.575562
3743.083460,-1665.404530,-1684.547110,-9475.577496
3743.086001,-3483.949706,1550.549045,-8958.727814
3743.088542,-3005.385186,2775.674216,-8920.442653
3743.091083,-2411.965181,-1129.412267,-9609.575562
3743.093624,-2029.113565,-1531.406464,-9284.151688
3743.096165,-1052.841944,1033.699363,-9131.011042
3743.098706,-1416.550979,-918.843878,-9379.864592
3743.101247,-1435.693560,1129.412267,-9150.153622
3743.103789,-1397.408398,1761.117434,-9360.722011
3743.106330,-4862.215523,-1722.832272,-9628.718142
3743.108871,-574.277424,-76.570323,-8958.727814
3743.111416,3732.803256,593.420005,-8997.012976
3743.113962,1799.402595,-497.707101,-8786.444587
3743.116507,-5953.342629,325.423874,-9035.298138
3743.119053,-3024.527766,1550.549045,-9150.153622
3743.121598,-2411.965181,-1091.127106,-9150.153622
3743.124144,-2239.681954,-899.701298,-9418.149754
3743.126689,-5130.211654,1607.976787,-9245.866526
3743.129235,-2718.246474,133.998066,-8997.012976
3743.131781,133.998066,-1110.269686,-9322.436850
3743.134326,1875.972918,2354.537438,-8633.303941
3743.136872,3503.092286,-1703.689691,-9245.866526
3743.139417,-2526.820666,-153.140646,-8977.870395
3743.141963,1148.554848,-267.996131,-9379.864592
3743.144508,-325.423874,267.996131,-9571.290400
3743.147054,803.988394,95.712904,-9437.292334
3743.149599,1225.125171,1435.693560,-8882.157491
3743.152145,-478.564520,382.851616,-9092.725880
3743.154690,267.996131,-2048.256146,-9341.579430
3743.157236,-2947.957443,3120.240670,-8709.874264
3743.159781,3503.092286,-76.570323,-9092.725880
3743.162327,-593.420005,-459.421939,-8633.303941
3743.164872,2718.246474,612.562586,-9131.011042
3743.167418,0.000000,-497.707101,-9360.722011
3743.169964,1205.982590,-899.701298,-9437.292334
3743.172509,2297.109696,918.843878,-8805.587168
3743.175055,1875.972918,-382.851616,-8958.727814
3743.177600,1569.691626,-2086.541307,-9188.438784
3743.180146,-612.562586,1014.556782,-8786.444587
3743.182691,-38.285162,-516.849682,-8786.444587
3743.185237,-2297.109696,1225.125171,-8499.305875
3743.187782,-1531.406464,803.988394,-8901.300072
3743.190328,-2986.242605,-689.132909,-9360.722011
3743.192873,-1588.834206,-1454.836141,-9284.151688
3743.195419,-1493.121302,306.281293,-8690.731683
3743.197964,-1052.841944,1627.119368,-8843.872330
3743.200510,-1301.695494,-1761.117434,-8729.016845
3743.203055,-1837.687757,2488.535504,-8633.303941
3743.205601,-4823.930362,689.132909,-8748.159426
3743.208146,-5991.627790,-1052.841944,-9399.007173
3743.210692,7733.602643,-727.418070,-9265.009107
3743.213242,-7082.754896,1722.832272,-9073.583299
3743.215791,-3254.238736,-1799.402595,-8997.012976
3743.218341,-2258.824534,2067.398726,-8384.450390
3743.220890,-2928.814862,-1186.840010,-9322.436850
3743.223440,-2986.242605,765.703232,-8671.589102
3743.225989,-6393.621987,1282.552914,-8977.870395
3743.228539,880.558717,-57.427742,-9667.003304
3743.231088,421.136778,1071.984525,-9513.862658
3743.233638,918.843878,-2105.683888,-9552.147819
3743.236187,-574.277424,2029.113565,-9226.723946
3743.238737,574.277424,-3503.092286,-9609.575562
3743.241286,516.849682,1818.545176,-8901.300072
3743.243836,708.275490,-306.281293,-9322.436850
3743.246386,-267.996131,-976.271621,-9781.858789
3743.248935,-689.132909,248.853550,-9590.432981
3743.251485,2622.533570,-95.712904,-9265.009107
3743.254034,1186.840010,-2373.680019,-9820.143950
3743.256584,-3388.236802,899.701298,-9265.009107
3743.259133,-1205.982590,1091.127106,-9226.723946
3743.261683,2565.105827,-2029.113565,-9399.007173
3743.264232,1148.554848,-612.562586,-9379.864592
3743.266782,2067.398726,880.558717,-9418.149754
3743.269331,1129.412267,-689.132909,-9437.292334
3743.271881,861.416136,-95.712904,-9475.577496
3743.274430,2163.111630,516.849682,-9801.001370
3743.276980,-727.418070,-2411.965181,-9571.290400
3743.279529,-765.703232,574.277424,-8958.727814
3743.282079,-3292.523898,2105.683888,-9111.868461
3743.284629,-2756.531635,172.283227,-9188.438784
3743.287178,-2833.101958,-765.703232,-9111.868461
3743.289728,-1761.117434,478.564520,-9131.011042
3743.292277,-1263.410333,-880.558717,-9092.725880
3743.294827,-1091.127106,708.275490,-9054.440718
3743.297376,-1473.978722,2009.970984,-9399.007173
3743.299926,-1799.402595,229.710970,-9131.011042
3743.302475,-2335.394858,-2009.970984,-9111.868461
3743.305025,2603.390989,1052.841944,-8709.874264
3743.307574,497.707101,210.568389,-9379.864592
3743.310124,-1684.547110,-382.851616,-8729.016845
3743.312673,-4115.654872,2258.824534,-8537.591037
3743.315226,-2411.965181,-574.277424,-8901.300072
3743.317779,-3235.096155,-248.853550,-9054.440718
3743.320331,-3560.520029,1550.549045,-9494.720077
3743.322884,-2660.818731,-95.712904,-8671.589102
3743.325436,-765.703232,-535.992262,-8882.157491
3743.327989,1971.685822,1971.685822,-8977.870395
3743.330542,325.423874,-210.568389,-9341.579430
3743.333094,650.847747,-823.130974,-9188.438784
3743.335647,784.845813,765.703232,-8920.442653
3743.338200,861.416136,-669.990328,-9226.723946
3743.340752,325.423874,-19.142581,-9131.011042
3743.343305,-95.712904,784.845813,-8977.870395
3743.345857,133.998066,344.566454,-9456.434915
3743.348410,995.414202,-2488.535504,-9379.864592
3743.350963,-76.570323,861.416136,-8901.300072
3743.353515,-2354.537438,650.847747,-9169.296203
3743.356068,248.853550,-746.560651,-9092.725880
3743.358620,-2124.826469,1320.838075,-9054.440718
3743.361173,3330.809059,133.998066,-9915.856854
3743.363726,2411.965181,-1569.691626,-9379.864592
3743.366278,1971.685822,918.843878,-8729.016845
3743.368831,2239.681954,-440.279358,-9245.866526
3743.371383,344.566454,-1895.115499,-9475.577496
3743.373936,957.129040,-401.994197,-8863.014910
3743.376489,-1244.267752,440.279358,-8595.018779
3743.379041,-1205.982590,421.136778,-8441.878133
3743.381594,-3560.520029,765.703232,-9150.153622
3743.384146,-2316.252277,-267.996131,-9628.718142
3743.386699,-2067.398726,-1397.408398,-9399.007173
3743.389252,-1244.267752,-38.285162,-8786.444587
3743.391804,-746.560651,1818.545176,-8805.587168
3743.394357,-1684.547110,-1780.260014,-9035.298138
3743.396910,-459.421939,2277.967115,-8346.165229
3743.399462,-248.853550,-1244.267752,-8767.302006
3743.402015,2277.967115,-1856.830338,-9418.149754
3743.404567,-5206.781978,2354.537438,-9667.003304
3743.407120,-2048.256146,1014.556782,-9322.436850
3743.409673,-191.425808,-38.285162,-8709.874264
3743.412225,-3771.088418,-516.849682,-8901.300072
3743.414778,-2813.959378,689.132909,-8977.870395
3743.417333,-4862.215523,-803.988394,-9245.866526
3743.419888,-1722.832272,267.996131,-9169.296203
3743.422443,-1531.406464,1167.697429,-9360.722011
3743.424999,1665.404530,-306.281293,-9647.860723
3743.427554,1320.838075,-631.705166,-9494.720077
3743.430109,-191.425808,-229.710970,-9609.575562
3743.432664,535.992262,-1895.115499,-9820.143950
3743.435219,-344.566454,229.710970,-9341.579430
3743.437775,535.992262,1186.840010,-9399.007173
3743.440330,669.990328,765.703232,-9207.581365
3743.442885,-1167.697429,-1569.691626,-9226.723946
3743.445440,3101.098090,133.998066,-9188.438784
3743.447996,-995.414202,-937.986459,-9705.288466
3743.450551,-4192.225195,880.558717,-9188.438784
3743.453106,1359.123237,1416.550979,-8958.727814
3743.455661,2450.250342,-1837.687757,-9743.573627
3743.458216,229.710970,229.710970,-9571.290400
3743.460772,1703.689691,2297.109696,-9111.868461
3743.463327,669.990328,-287.138712,-9188.438784
3743.465882,1359.123237,-918.843878,-9265.009107
3743.468437,2220.539373,401.994197,-9284.151688
3743.470992,-1205.982590,-937.986459,-9513.862658
3743.473548,-3732.803256,995.414202,-9265.009107
3743.476103,-3943.371645,2909.672282,-9073.583299
3743.478658,-1761.117434,287.138712,-9169.296203
3743.481213,-2507.678085,-3196.810994,-8977.870395
3743.483769,-133.998066,1990.828403,-8422.735552
3743.486324,-1684.547110,-842.273555,-8863.014910
3743.488879,-746.560651,1148.554848,-8652.446522
3743.491434,-1684.547110,1646.261949,-9284.151688
3743.493989,-4804.787781,612.562586,-9513.862658
3743.496545,-1818.545176,-842.273555,-8901.300072
3743.499100,-133.998066,1473.978722,-9111.868461
3743.501655,-593.420005,1435.693560,-9016.155557
3743.504210,-38.285162,-1225.125171,-8365.307810
3743.506765,-4632.504554,1435.693560,-8346.165229
3743.509321,-2737.389054,-229.710970,-9073.583299
3743.511876,-4747.360038,823.130974,-9035.298138
3743.514431,-1703.689691,1033.699363,-9035.298138
3743.516986,-1359.123237,229.710970,-8748.159426
3743.519544,363.709035,57.427742,-9360.722011
3743.522102,784.845813,-440.279358,-9035.298138
3743.524660,478.564520,535.992262,-9245.866526
3743.527217,1569.691626,-2986.242605,-9341.579430
3743.529775,516.849682,1952.543242,-8595.018779
3743.532333,1359.123237,19.142581,-9111.868461
3743.534891,-612.562586,-784.845813,-8882.157491
3743.537449,1646.261949,325.423874,-9303.294269
3743.540006,-497.707101,-114.855485,-9628.718142
3743.542564,-401.994197,-555.134843,-9092.725880
3743.545122,5206.781978,-248.853550,-9303.294269
3743.547680,-7542.176835,1588.834206,-8767.302006
3743.550238,3637.090352,-861.416136,-9801.001370
3743.552795,1186.840010,899.701298,-8824.729749
3743.555353,2603.390989,57.427742,-9341.579430
3743.557911,4613.361973,-95.712904,-9341.579430
3743.560469,-2526.820666,-1435.693560,-9379.864592
3743.563026,3943.371645,708.275490,-9839.286531
3743.565584,-2737.389054,-2258.824534,-9284.151688
3743.568142,-1454.836141,172.283227,-9035.298138
3743.570700,-3675.375514,3656.232933,-8690.731683
3743.573258,-2354.537438,-2143.969050,-9284.151688
3743.575815,-2163.111630,803.988394,-9456.434915
3743.578373,-2143.969050,76.570323,-9131.011042
3743.580931,-555.134843,-1550.549045,-9322.436850
3743.583489,-2450.250342,1761.117434,-9245.866526
3743.586047,229.710970,1148.554848,-9341.579430
3743.588604,-3215.953574,-1875.972918,-9284.151688
3743.591162,-382.851616,-401.994197,-8863.014910
3743.593720,-1205.982590,1263.410333,-9494.720077
3743.596278,-4249.652938,957.129040,-9245.866526
3743.598835,-2584.248408,306.281293,-9169.296203
3743.601393,-2354.537438,1550.549045,-8920.442653
3743.603951,-3617.947771,-1588.834206,-9341.579430
3743.606509,-4326.223261,1186.840010,-9265.009107
3743.609067,-4441.078746,861.416136,-9341.579430
3743.611624,440.279358,-1397.408398,-9341.579430
3743.614182,-191.425808,1244.267752,-9226.723946
3743.616740,1588.834206,153.140646,-9131.011042
3743.619298,-421.136778,210.568389,-9360.722011
3743.621858,1148.554848,-2009.970984,-9533.005238
3743.624418,325.423874,1359.123237,-9169.296203
3743.626978,918.843878,-401.994197,-9647.860723
3743.629538,-1531.406464,57.427742,-9150.153622
3743.632098,708.275490,880.558717,-9322.436850
3743.634658,459.421939,-38.285162,-9418.149754
3743.637218,2258.824534,-1225.125171,-9150.153622
3743.639778,76.570323,1646.261949,-8556.733618
3743.642338,-1741.974853,-229.710970,-9379.864592
3743.644898,-459.421939,-631.705166,-9054.440718
3743.647458,1818.545176,1301.695494,-9762.716208
3743.650018,1799.402595,-1607.976787,-9533.005238
3743.652578,2029.113565,555.134843,-9054.440718
3743.655138,1914.258080,344.566454,-8805.587168
3743.657698,727.418070,-612.562586,-9169.296203
3743.660258,-363.709035,-937.986459,-8939.585234
3743.662818,-3579.662610,2411.965181,-8595.018779
3743.665378,-3330.809059,1569.691626,-8805.587168
3743.667938,-3177.668413,76.570323,-9016.155557
3743.670498,-1359.123237,-191.425808,-8939.585234
3743.673058,-957.129040,210.568389,-9054.440718
3743.675618,-267.996131,-1914.258080,-8863.014910
3743.678178,-746.560651,2124.826469,-8403.592971
3743.680738,-1301.695494,1990.828403,-8997.012976
3743.683298,-2316.252277,-2009.970984,-8633.303941
3743.685858,899.701298,1225.125171,-8193.024582
3743.688419,-803.988394,19.142581,-9111.868461
3743.690979,153.140646,-784.845813,-8786.444587
3743.693539,-2679.961312,803.988394,-8384.450390
3743.696099,-3330.809059,114.855485,-8901.300072
3743.698659,-3139.383251,-1378.265818,-9341.579430
3743.701219,-3254.238736,1263.410333,-8786.444587
3743.703779,-1761.117434,382.851616,-8882.157491
3743.706339,-1895.115499,-823.130974,-8939.585234
3743.708899,2986.242605,2258.824534,-8518.448456
3743.711459,0.000000,-229.710970,-9245.866526
3743.714019,191.425808,-2105.683888,-9762.716208
3743.716579,440.279358,-325.423874,-9475.577496
3743.719139,746.560651,-76.570323,-9494.720077
3743.721699,516.849682,-612.562586,-9207.581365
3743.724260,-1397.408398,669.990328,-9092.725880
3743.726822,612.562586,-57.427742,-9169.296203
3743.729383,-172.283227,-1359.123237,-9360.722011
3743.731945,1167.697429,38.285162,-9245.866526
3743.734507,344.566454,957.129040,-9322.436850
3743.737068,-3847.658741,-555.134843,-9513.862658
3743.739630,2756.531635,363.709035,-9705.288466
3743.742191,765.703232,-689.132909,-9877.571693
3743.744753,3426.521963,-1416.550979,-9609.575562
3743.747314,574.277424,765.703232,-8863.014910
3743.749876,2124.826469,0.000000,-9571.290400
3743.752437,-133.998066,-1875.972918,-9628.718142
3743.754999,-1990.828403,114.855485,-8939.585234
3743.757560,-1263.410333,3158.525832,-9016.155557
3743.760122,-4804.787781,-421.136778,-9226.723946
3743.762684,-2450.250342,-689.132909,-9265.009107
3743.765245,-3101.098090,478.564520,-9513.862658
3743.767807,-1225.125171,-2009.970984,-9341.579430
3743.770368,-1493.121302,765.703232,-8709.874264
3743.772930,-612.562586,2239.681954,-9303.294269
3743.775491,-2507.678085,-421.136778,-9379.864592
3743.778053,-5953.342629,287.138712,-9111.868461
3743.780614,1091.127106,306.281293,-9437.292334
3743.783176,1454.836141,-765.703232,-9150.153622
3743.785737,-5819.344563,612.562586,-9303.294269
3743.788299,-2526.820666,1665.404530,-9035.298138
3743.790861,-3847.658741,-210.568389,-8997.012976
3743.793422,-1837.687757,-765.703232,-9245.866526
3743.795984,-3483.949706,1780.260014,-8843.872330
3743.798545,-1493.121302,-363.709035,-9284.151688
3743.801107,-344.566454,650.847747,-9188.438784
3743.803668,191.425808,650.847747,-9533.005238
3743.806230,1856.830338,-1225.125171,-9590.432981
3743.808791,976.271621,-727.418070,-9322.436850
3743.811353,803.988394,325.423874,-8863.014910
3743.813914,1244.267752,995.414202,-9092.725880
3743.816476,-440.279358,-1933.400661,-8805.587168
3743.819038,746.560651,2105.683888,-8920.442653
3743.821599,535.992262,-1282.552914,-9245.866526
3743.824161,-1971.685822,-669.990328,-9399.007173
3743.826724,-1588.834206,1856.830338,-9207.581365
3743.829287,-3541.377448,1225.125171,-9475.577496
3743.831850,2009.970984,-1416.550979,-9571.290400
3743.834413,2756.531635,-669.990328,-9169.296203
3743.836976,2143.969050,440.279358,-9169.296203
3743.839539,937.986459,-937.986459,-9169.296203
3743.842102,1780.260014,1359.123237,-8997.012976
3743.844665,1301.695494,-1895.115499,-9284.151688
3743.847228,-1091.127106,-267.996131,-8977.870395
3743.849791,-1033.699363,2565.105827,-8384.450390
3743.852353,-4709.074877,1129.412267,-9150.153622
3743.854916,-3579.662610,-2354.537438,-9207.581365
3743.857479,-1244.267752,765.703232,-8614.161360
3743.860042,-1301.695494,-421.136778,-8939.585234
3743.862605,-363.709035,-114.855485,-8614.161360
3743.865168,-363.709035,1320.838075,-8441.878133
3743.867731,-2756.531635,1148.554848,-9207.581365
3743.870294,421.136778,-2086.541307,-9226.723946
3743.872857,-1473.978722,1091.127106,-8595.018779
3743.875420,1320.838075,612.562586,-8977.870395
3743.877983,-1588.834206,-1416.550979,-8882.157491
3743.880546,-4249.652938,1952.543242,-8346.165229
3743.883109,-1627.119368,-325.423874,-8595.018779
3743.885672,-4689.932296,153.140646,-8824.729749
3743.888235,-2335.394858,95.712904,-9513.862658
3743.890798,-2163.111630,1148.554848,-9188.438784
3743.893361,784.845813,-459.421939,-9513.862658
3743.895924,-765.703232,440.279358,-9169.296203
3743.898487,1129.412267,229.710970,-9437.292334
3743.901050,1780.260014,-2603.390989,-9533.005238
3743.903613,1014.556782,803.988394,-9054.440718
3743.906176,1493.121302,-114.855485,-9265.009107
3743.908739,-1263.410333,-957.129040,-9207.581365
3743.911302,229.710970,421.136778,-9513.862658
3743.913865,-1167.697429,172.283227,-9552.147819
3743.916428,-5053.641331,-555.134843,-9686.145885
3743.918991,6470.192310,-229.710970,-9150.153622
3743.921554,-2086.541307,114.855485,-9188.438784
3743.924117,-3771.088418,-306.281293,-9667.003304
3743.926680,4134.797453,306.281293,-9245.866526
3743.929223,478.564520,497.707101,-9379.864592
3743.931768,5359.922624,-1856.830338,-9609.575562
3743.934313,-574.277424,-363.709035,-9092.725880
3743.936858,-267.996131,-555.134843,-9743.573627
3743.939403,-689.132909,-19.142581,-8958.727814
3743.941948,-1856.830338,1186.840010,-8824.729749
3743.944492,-4268.795518,1378.265818,-9437.292334
3743.947037,-4498.506488,-306.281293,-9073.583299
3743.949582,-1167.697429,-1091.127106,-9188.438784
3743.952127,-2469.392923,1416.550979,-8767.302006
3743.954672,133.998066,229.710970,-9533.005238
3743.957217,-937.986459,-899.701298,-8843.872330
3743.959762,-650.847747,1780.260014,-9150.153622
3743.962307,-1837.687757,-1761.117434,-9418.149754
3743.964852,-3005.385186,76.570323,-9360.722011
3743.967397,-2603.390989,2086.541307,-8882.157491
3743.969941,-2239.681954,784.845813,-8805.587168
3743.972486,-2947.957443,-708.275490,-8556.733618
3743.975031,-3101.098090,1014.556782,-8767.302006
3743.977576,-3407.379382,19.142581,-9399.007173
3743.980121,-4249.652938,555.134843,-9341.579430
3743.982666,-306.281293,1167.697429,-9322.436850
3743.985211,114.855485,1301.695494,-8824.729749
3743.987756,2967.100024,-2641.676150,-9092.725880
3743.990301,650.847747,363.709035,-8652.446522
3743.992846,2029.113565,-1091.127106,-9571.290400
3743.995391,0.000000,-229.710970,-9284.151688
3743.997935,650.847747,1933.400661,-9035.298138
3744.000480,-153.140646,-114.855485,-8882.157491
3744.003025,-1205.982590,-229.710970,-9571.290400
3744.005570,2565.105827,114.855485,-9207.581365
3744.008115,-2909.672282,229.710970,-9226.723946
3744.010660,-382.851616,-478.564520,-8709.874264
3744.013205,114.855485,727.418070,-8786.444587
3744.015750,3771.088418,114.855485,-9322.436850
3744.018295,19.142581,-1052.841944,-9590.432981
3744.020840,2871.387120,1320.838075,-9131.011042
3744.023384,1722.832272,-957.129040,-9169.296203
3744.025929,1129.412267,-2986.242605,-9513.862658
3744.028474,746.560651,880.558717,-8614.161360
3744.031023,-4594.219392,689.132909,-9016.155557
3744.033572,-2833.101958,1091.127106,-8633.303941
3744.036121,-3254.238736,1531.406464,-8633.303941
3744.038670,-1799.402595,-1531.406464,-9035.298138
3744.041220,-2048.256146,-689.132909,-8805.587168
3744.043769,-937.986459,-478.564520,-9188.438784
3744.046318,-1110.269686,2373.680019,-9131.011042
3744.048867,-2431.107762,-2182.254211,-9781.858789
3744.051416,-3751.945837,1320.838075,-8499.305875
3744.053965,267.996131,267.996131,-9111.868461
3744.056514,-210.568389,-1186.840010,-8977.870395
3744.059063,-191.425808,1435.693560,-8748.159426
3744.061612,-2431.107762,1071.984525,-8441.878133
3744.064161,-4843.072942,-1397.408398,-9207.581365
3744.066710,-3407.379382,823.130974,-9016.155557
3744.069259,-4058.227130,823.130974,-9475.577496
3744.071808,-287.138712,-1646.261949,-9284.151688
3744.074357,-823.130974,2297.109696,-8824.729749
3744.076906,229.710970,708.275490,-9437.292334
3744.079455,1416.550979,-1244.267752,-9092.725880
3744.082005,2699.103893,-1665.404530,-9724.431046
3744.084554,1282.552914,650.847747,-9552.147819
3744.087103,1052.841944,-861.416136,-9552.147819
3744.089652,-1282.552914,689.132909,-9150.153622
3744.092201,401.994197,842.273555,-9284.151688
3744.094750,-1244.267752,-2526.820666,-9494.720077
3744.097299,3847.658741,382.851616,-9111.868461
3744.099848,-1263.410333,401.994197,-8939.585234
3744.102397,-3637.090352,-535.992262,-9475.577496
3744.104946,4153.940034,344.566454,-9111.868461
3744.107495,-363.709035,-669.990328,-9896.714274
3744.110044,4383.651003,-229.710970,-9762.716208
3744.112593,114.855485,-191.425808,-9092.725880
3744.115142,3062.812928,421.136778,-9896.714274
3744.117691,-1091.127106,-2297.109696,-9360.722011
3744.120240,-19.142581,191.425808,-8786.444587
3744.122789,-1359.123237,3694.518094,-8575.876198
3744.125339,-4211.367776,-153.140646,-9054.440718
3744.127888,-2048.256146,-880.558717,-9360.722011
3744.130437,-3617.947771,1110.269686,-9265.009107
3744.132970,-421.136778,-1818.545176,-9341.579430
3744.135503,-2411.965181,1435.693560,-9303.294269
3744.138037,1052.841944,191.425808,-8595.018779
3744.140570,382.851616,-459.421939,-8882.157491
3744.143103,-2124.826469,-1550.549045,-8595.018779
3744.145637,-4211.367776,2622.533570,-9035.298138
3744.148170,382.851616,497.707101,-9533.005238
3744.150703,-1741.974853,-172.283227,-8595.018779
3744.153237,-4211.367776,976.271621,-9035.298138
3744.155770,-4709.074877,-287.138712,-9265.009107
3744.158303,-5168.496816,-497.707101,-9284.151688
3744.160837,191.425808,1741.974853,-8709.874264
3744.163370,-823.130974,823.130974,-8882.157491
3744.165903,689.132909,-325.423874,-9111.868461
3744.168437,2067.398726,1014.556782,-8556.733618
3744.170970,2545.963246,-1569.691626,-9379.864592
3744.173503,708.275490,-574.277424,-9284.151688
3744.176037,1435.693560,1014.556782,-9379.864592
3744.178570,-191.425808,325.423874,-8920.442653
3744.181103,-363.709035,-382.851616,-8939.585234
3744.183637,1952.543242,-1167.697429,-8212.167163
3744.186170,1722.832272,708.275490,-9188.438784
3744.188703,-3732.803256,-765.703232,-9188.438784
3744.191237,-1703.689691,3101.098090,-8652.446522
3744.193770,4000.799387,-1129.412267,-9016.155557
3744.196303,2201.396792,-2163.111630,-9705.288466
3744.198837,3101.098090,344.566454,-9035.298138
3744.201370,478.564520,-593.420005,-9226.723946
3744.203903,2239.681954,-1646.261949,-9379.864592
3744.206437,1282.552914,-38.285162,-8556.733618
3744.208970,-765.703232,-880.558717,-8671.589102
